Participant,block,Trial_Index_,identifier,face,you,proposer,fairness,OFFER_CUMMULATIVE,KEY_PRESSED,RT,accept,emotion,gender
P1,3,1,63,DST_081_M_ANG.png,600,400,hyperfair,0,j,3244.33,a,0,1
P1,3,2,43,DST_047_M_ANG.png,300,700,unfair,0,j,1450.73,a,0,1
P1,3,3,141,DST_079_M_HPY.png,800,200,hyperfair,0,a,1215.95,a,1,1
P1,3,4,17,DST_145_F_ANG.png,500,500,fair,0,j,1150.17,a,0,0
P1,3,5,7,DST_009_F_ANG.png,300,700,unfair,0,j,1166.25,a,0,0
P1,3,6,2,DST_017_F_ANG.png,100,900,unfair,0,j,1229.81,a,0,0
P1,3,7,113,DST_016_M_HPY.png,200,800,unfair,0,j,1035.08,a,1,1
P1,3,8,61,DST_010_M_ANG.png,600,400,hyperfair,0,j,1649.39,a,0,1
P1,3,9,126,DST_114_M_HPY.png,500,500,fair,0,j,4752.32,a,1,1
P1,3,10,83,DST_124_F_HPY.png,400,600,unfair,0,j,706.46,a,1,0
P1,3,11,26,DST_135_F_ANG.png,600,400,hyperfair,0,j,996.45,a,0,0
P1,3,12,54,DST_022_M_ANG.png,500,500,fair,0,j,746.73,a,0,1
P1,3,13,140,DST_018_M_HPY.png,800,200,hyperfair,0,a,876.2,a,1,1
P1,3,14,31,DST_171_F_ANG.png,800,200,hyperfair,0,a,778.99,a,0,0
P1,3,15,135,DST_071_M_HPY.png,600,400,hyperfair,0,j,953.58,a,1,1
P1,3,16,6,DST_130_F_ANG.png,200,800,unfair,0,j,802.37,a,0,0
P1,3,17,90,DST_164_F_HPY.png,500,500,fair,0,j,783.48,a,1,0
P1,3,18,124,DST_013_M_HPY.png,500,500,fair,0,j,723.88,a,1,1
P1,3,19,66,DST_114_M_ANG.png,700,300,hyperfair,0,a,1411.65,a,0,1
P1,3,20,77,DST_017_F_HPY.png,200,800,unfair,0,j,920.29,a,1,0
P1,3,21,103,DST_126_F_HPY.png,800,200,hyperfair,0,a,873.5,a,1,0
P1,3,22,56,DST_120_M_ANG.png,500,500,fair,0,j,951.23,a,0,1
P1,3,23,96,DST_162_F_HPY.png,500,500,fair,0,j,979.06,a,1,0
P1,3,24,45,DST_099_M_ANG.png,300,700,unfair,0,j,1706.65,a,0,1
P1,3,25,60,DST_118_M_ANG.png,500,500,fair,0,j,660.58,a,0,1
P1,3,26,100,DST_065_F_HPY.png,700,300,hyperfair,0,a,1322.5,a,1,0
P1,3,27,70,DST_115_M_ANG.png,900,100,hyperfair,0,a,1139.31,a,0,1
P1,3,28,101,DST_157_F_HPY.png,700,300,hyperfair,0,a,918.38,a,1,0
P1,3,29,125,DST_096_M_HPY.png,500,500,fair,0,j,848.3,a,1,1
P1,3,30,9,DST_129_F_ANG.png,300,700,unfair,0,j,941.03,a,0,0
P1,3,31,8,DST_149_F_ANG.png,300,700,unfair,0,j,1130.39,a,0,0
P1,3,32,129,DST_031_M_HPY.png,500,500,fair,0,j,1323.76,a,1,1
P1,3,33,143,DST_083_M_HPY.png,900,100,hyperfair,0,a,964.5,a,1,1
P1,3,34,112,DST_116_M_HPY.png,200,800,unfair,0,j,764.13,a,1,1
P1,3,35,93,DST_146_F_HPY.png,500,500,fair,0,j,1002.48,a,1,0
P1,3,36,35,DST_173_F_ANG.png,900,100,hyperfair,0,a,4898.67,a,0,0
P1,3,37,128,DST_022_M_HPY.png,500,500,fair,0,j,1122.23,a,1,1
P1,3,38,118,DST_048_M_HPY.png,400,600,unfair,0,j,850.38,a,1,1
P1,3,39,105,DST_185_F_HPY.png,800,200,hyperfair,0,a,846.21,a,1,0
P1,3,40,127,DST_115_M_HPY.png,500,500,fair,0,j,825.62,a,1,1
P1,3,41,21,DST_174_F_ANG.png,500,500,fair,0,j,731.26,a,0,0
P1,3,42,13,DST_167_F_ANG.png,500,500,fair,0,j,673.68,a,0,0
P1,3,43,137,DST_089_M_HPY.png,700,300,hyperfair,0,a,835.43,a,1,1
P1,3,44,92,DST_133_F_HPY.png,500,500,fair,0,j,817.77,a,1,0
P1,3,45,138,DST_118_M_HPY.png,700,300,hyperfair,0,j,1149.84,a,1,1
P1,3,46,46,DST_048_M_ANG.png,400,600,unfair,0,j,1247.08,a,0,1
P1,3,47,28,DST_161_F_ANG.png,700,300,hyperfair,0,a,2092.52,a,0,0
P1,3,48,25,DST_029_F_ANG.png,600,400,hyperfair,0,j,1159.27,a,0,0
P1,3,49,48,DST_056_M_ANG.png,400,600,unfair,0,j,3127.42,a,0,1
P1,3,50,33,DST_002_F_ANG.png,800,200,hyperfair,0,a,745.39,a,0,0
P1,3,51,73,DST_029_F_HPY.png,100,900,unfair,0,j,4073.04,a,1,0
P1,3,52,139,DST_119_M_HPY.png,800,200,hyperfair,0,a,4453.07,a,1,1
P1,3,53,102,DST_177_F_HPY.png,700,300,hyperfair,0,a,3535.83,a,1,0
P1,3,54,82,DST_009_F_HPY.png,400,600,unfair,0,j,3906.03,a,1,0
P1,3,55,133,DST_030_M_HPY.png,600,400,hyperfair,0,j,1827.94,a,1,1
P1,3,56,114,DST_098_M_HPY.png,200,800,unfair,0,j,1562.89,a,1,1
P1,3,57,106,DST_027_F_HPY.png,900,100,hyperfair,0,a,746.04,a,1,0
P1,3,58,72,DST_013_M_ANG.png,900,100,hyperfair,0,a,672.06,a,0,1
P1,3,59,64,DST_106_M_ANG.png,700,300,hyperfair,0,a,802.58,a,0,1
P1,3,60,130,DST_056_M_HPY.png,500,500,fair,0,j,770.38,a,1,1
P1,3,61,79,DST_149_F_HPY.png,300,700,unfair,0,j,1104.78,a,1,0
P1,3,62,10,DST_133_F_ANG.png,400,600,unfair,0,j,1379.69,a,0,0
P1,3,63,69,DST_074_M_ANG.png,800,200,hyperfair,0,a,2650.72,a,0,1
P1,3,64,53,DST_103_M_ANG.png,500,500,fair,0,j,929.28,a,0,1
P1,3,65,16,DST_131_F_ANG.png,500,500,fair,0,j,5357.92,a,0,0
P1,3,66,58,DST_091_M_ANG.png,500,500,fair,0,j,1466.68,a,0,1
P1,3,67,29,DST_183_F_ANG.png,700,300,hyperfair,0,a,925.22,a,0,0
P1,3,68,104,DST_182_F_HPY.png,800,200,hyperfair,0,a,759.87,a,1,0
P1,3,69,123,DST_077_M_HPY.png,500,500,fair,0,j,934.52,a,1,1
P1,3,70,97,DST_173_F_HPY.png,600,400,hyperfair,0,j,1023.27,a,1,0
P1,3,71,94,DST_159_F_HPY.png,500,500,fair,0,j,932.73,a,1,0
P1,3,72,52,DST_097_M_ANG.png,500,500,fair,0,j,880.97,a,0,1
P1,3,73,1,DST_046_F_ANG.png,100,900,unfair,0,j,872.6,a,0,0
P1,3,74,119,DST_074_M_HPY.png,400,600,unfair,0,j,819.69,a,1,1
P1,3,75,37,DST_071_M_ANG.png,100,900,unfair,0,j,1070.45,a,0,1
P1,3,76,108,DST_138_F_HPY.png,900,100,hyperfair,0,a,708.72,a,1,0
P1,3,77,5,DST_124_F_ANG.png,200,800,unfair,0,j,628.45,a,0,0
P1,3,78,75,DST_142_F_HPY.png,100,900,unfair,0,j,651.79,a,1,0
P1,3,79,22,DST_186_F_ANG.png,500,500,fair,0,j,687.89,a,0,0
P1,3,80,65,DST_110_M_ANG.png,700,300,hyperfair,0,a,898.89,a,0,1
P1,3,81,76,DST_183_F_HPY.png,200,800,unfair,0,j,720.39,a,1,0
P1,3,82,55,DST_096_M_ANG.png,500,500,fair,0,j,963.37,a,0,1
P1,3,83,111,DST_097_M_HPY.png,100,900,unfair,0,j,874.29,a,1,1
P1,3,84,67,DST_020_M_ANG.png,800,200,hyperfair,0,a,678.1,a,0,1
P1,3,85,49,DST_068_M_ANG.png,500,500,fair,0,j,743.79,a,0,1
P1,3,86,39,DST_031_M_ANG.png,100,900,unfair,0,j,618.16,a,0,1
P1,3,87,23,DST_032_F_ANG.png,500,500,fair,0,j,719.75,a,0,0
P1,3,88,98,DST_174_F_HPY.png,600,400,hyperfair,0,a,849.14,a,1,0
P1,3,89,11,DST_137_F_ANG.png,400,600,unfair,0,j,605.56,a,0,0
P1,3,90,99,DST_186_F_HPY.png,600,400,hyperfair,0,j,1093.5,a,1,0
P1,3,91,107,DST_130_F_HPY.png,900,100,hyperfair,0,a,824.82,a,1,0
P1,3,92,24,DST_147_F_ANG.png,500,500,fair,0,j,742.8,a,0,0
P1,3,93,30,DST_036_F_ANG.png,700,300,hyperfair,0,a,1158.87,a,0,0
P1,3,94,144,DST_091_M_HPY.png,900,100,hyperfair,0,a,920.23,a,1,1
P1,3,95,12,DST_040_F_ANG.png,400,600,unfair,0,j,770.01,a,0,0
P1,3,96,132,DST_122_M_HPY.png,500,500,fair,0,j,675.14,a,1,1
P1,3,97,42,DST_026_M_ANG.png,200,800,unfair,0,j,725.32,a,0,1
P1,3,98,74,DST_036_F_HPY.png,100,900,unfair,0,j,742.78,a,1,0
P1,3,99,95,DST_161_F_HPY.png,500,500,fair,0,j,696.1,a,1,0
P1,3,100,36,DST_004_F_ANG.png,900,100,hyperfair,0,a,794.9,a,0,0
P1,3,101,80,DST_128_F_HPY.png,300,700,unfair,0,j,1096.93,a,1,0
P1,3,102,91,DST_025_F_HPY.png,500,500,fair,0,j,651.54,a,1,0
P1,3,103,62,DST_051_M_ANG.png,600,400,hyperfair,0,j,1056.22,a,0,1
P1,3,104,122,DST_047_M_HPY.png,500,500,fair,0,j,756.02,a,1,1
P1,3,105,121,DST_012_M_HPY.png,500,500,fair,0,j,1304.19,a,1,1
P1,3,106,136,DST_093_M_HPY.png,700,300,hyperfair,0,a,895.92,a,1,1
P1,3,107,50,DST_089_M_ANG.png,500,500,fair,0,j,987.32,a,0,1
P1,3,108,85,DST_002_F_HPY.png,500,500,fair,0,j,1135.2,a,1,0
P1,3,109,86,DST_040_F_HPY.png,500,500,fair,0,j,1235.26,a,1,0
P1,3,110,47,DST_030_M_ANG.png,400,600,unfair,0,j,689.94,a,0,1
P1,3,111,81,DST_135_F_HPY.png,300,700,unfair,0,j,851.24,a,1,0
P1,3,112,32,DST_182_F_ANG.png,800,200,hyperfair,0,a,688.66,a,0,0
P1,3,113,40,DST_119_M_ANG.png,200,800,unfair,0,j,3235.74,a,0,1
P1,3,114,57,DST_088_M_ANG.png,500,500,fair,0,j,753.94,a,0,1
P1,3,115,134,DST_064_M_HPY.png,600,400,hyperfair,0,j,707.48,a,1,1
P1,3,116,41,DST_016_M_ANG.png,200,800,unfair,0,j,867.47,a,0,1
P1,3,117,116,DST_010_M_HPY.png,300,700,unfair,0,j,719.44,a,1,1
P1,3,118,87,DST_046_F_HPY.png,500,500,fair,0,j,578.54,a,1,0
P1,3,119,78,DST_145_F_HPY.png,200,800,unfair,0,j,648.92,a,1,0
P1,3,120,34,DST_042_F_ANG.png,900,100,hyperfair,0,a,926.36,a,0,0
P1,3,121,68,DST_064_M_ANG.png,800,200,hyperfair,0,a,918.99,a,0,1
P1,3,122,120,DST_084_M_HPY.png,400,600,unfair,0,j,1234.78,a,1,1
P1,3,123,117,DST_015_M_HPY.png,300,700,unfair,0,j,846.75,a,1,1
P1,3,124,18,DST_023_F_ANG.png,500,500,fair,0,j,1035.24,a,0,0
P1,3,125,38,DST_043_M_ANG.png,100,900,unfair,0,j,768.55,a,0,1
P1,3,126,115,DST_103_M_HPY.png,300,700,unfair,0,j,802.17,a,1,1
P1,3,127,131,DST_088_M_HPY.png,500,500,fair,0,j,880.79,a,1,1
P1,3,128,14,DST_005_F_ANG.png,500,500,fair,0,j,831.26,a,0,0
P1,3,129,142,DST_081_M_HPY.png,900,100,hyperfair,0,a,860.63,a,1,1
P1,3,130,27,DST_157_F_ANG.png,600,400,hyperfair,0,j,1080.96,a,0,0
P1,3,131,19,DST_025_F_ANG.png,500,500,fair,0,j,795.71,a,0,0
P1,3,132,15,DST_123_F_ANG.png,500,500,fair,0,j,733.84,a,0,0
P1,3,133,59,DST_098_M_ANG.png,500,500,fair,0,j,1043.4,a,0,1
P1,3,134,20,DST_164_F_ANG.png,500,500,fair,0,j,1230.44,a,0,0
P1,3,135,44,DST_079_M_ANG.png,300,700,unfair,0,j,794.16,a,0,1
P1,3,136,89,DST_137_F_HPY.png,500,500,fair,0,j,824.24,a,1,0
P1,3,137,51,DST_090_M_ANG.png,500,500,fair,0,j,568.6,a,0,1
P1,3,138,3,DST_138_F_ANG.png,100,900,unfair,0,j,769.62,a,0,0
P1,3,139,84,DST_129_F_HPY.png,400,600,unfair,0,j,673.08,a,1,0
P1,3,140,109,DST_026_M_HPY.png,100,900,unfair,0,j,772.53,a,1,1
P1,3,141,71,DST_012_M_ANG.png,900,100,hyperfair,0,a,708.59,a,0,1
P1,3,142,4,DST_024_F_ANG.png,200,800,unfair,0,j,917.99,a,0,0
P1,3,143,110,DST_086_M_HPY.png,100,900,unfair,0,j,943.07,a,1,1
P1,3,144,88,DST_131_F_HPY.png,500,500,fair,0,j,745.91,a,1,0
P2,3,1,138,DST_118_M_HPY.png,700,300,hyperfair,0,a,2656.35,a,1,1
P2,3,2,139,DST_119_M_HPY.png,800,200,hyperfair,0,a,644.69,a,1,1
P2,3,3,55,DST_096_M_ANG.png,500,500,fair,0,a,952.66,a,0,1
P2,3,4,125,DST_096_M_HPY.png,500,500,fair,0,a,807.16,a,1,1
P2,3,5,128,DST_022_M_HPY.png,500,500,fair,0,a,632.75,a,1,1
P2,3,6,141,DST_079_M_HPY.png,800,200,hyperfair,0,a,636.19,a,1,1
P2,3,7,115,DST_103_M_HPY.png,300,700,unfair,0,j,928.86,a,1,1
P2,3,8,29,DST_183_F_ANG.png,700,300,hyperfair,0,a,763.71,a,0,0
P2,3,9,20,DST_164_F_ANG.png,500,500,fair,0,a,681.84,a,0,0
P2,3,10,47,DST_030_M_ANG.png,400,600,unfair,0,a,1135.25,a,0,1
P2,3,11,126,DST_114_M_HPY.png,500,500,fair,0,a,879.04,a,1,1
P2,3,12,105,DST_185_F_HPY.png,800,200,hyperfair,0,a,652.93,a,1,0
P2,3,13,82,DST_009_F_HPY.png,400,600,unfair,0,a,898.06,a,1,0
P2,3,14,79,DST_149_F_HPY.png,300,700,unfair,0,j,733.3,a,1,0
P2,3,15,8,DST_149_F_ANG.png,300,700,unfair,0,j,1092.31,a,0,0
P2,3,16,74,DST_036_F_HPY.png,100,900,unfair,0,j,902.24,a,1,0
P2,3,17,122,DST_047_M_HPY.png,500,500,fair,0,a,769.5,a,1,1
P2,3,18,89,DST_137_F_HPY.png,500,500,fair,0,a,678.33,a,1,0
P2,3,19,19,DST_025_F_ANG.png,500,500,fair,0,a,687.91,a,0,0
P2,3,20,124,DST_013_M_HPY.png,500,500,fair,0,a,680.13,a,1,1
P2,3,21,94,DST_159_F_HPY.png,500,500,fair,0,a,672.63,a,1,0
P2,3,22,30,DST_036_F_ANG.png,700,300,hyperfair,0,a,803.55,a,0,0
P2,3,23,58,DST_091_M_ANG.png,500,500,fair,0,a,641.55,a,0,1
P2,3,24,6,DST_130_F_ANG.png,200,800,unfair,0,j,1031.15,a,0,0
P2,3,25,110,DST_086_M_HPY.png,100,900,unfair,0,j,845.47,a,1,1
P2,3,26,36,DST_004_F_ANG.png,900,100,hyperfair,0,a,1034.4,a,0,0
P2,3,27,3,DST_138_F_ANG.png,100,900,unfair,0,j,817.22,a,0,0
P2,3,28,45,DST_099_M_ANG.png,300,700,unfair,0,j,862.4,a,0,1
P2,3,29,38,DST_043_M_ANG.png,100,900,unfair,0,j,761.56,a,0,1
P2,3,30,112,DST_116_M_HPY.png,200,800,unfair,0,j,812.4,a,1,1
P2,3,31,142,DST_081_M_HPY.png,900,100,hyperfair,0,a,793.84,a,1,1
P2,3,32,34,DST_042_F_ANG.png,900,100,hyperfair,0,a,655.16,a,0,0
P2,3,33,23,DST_032_F_ANG.png,500,500,fair,0,a,848.89,a,0,0
P2,3,34,103,DST_126_F_HPY.png,800,200,hyperfair,0,a,685.8,a,1,0
P2,3,35,42,DST_026_M_ANG.png,200,800,unfair,0,j,961.02,a,0,1
P2,3,36,4,DST_024_F_ANG.png,200,800,unfair,0,j,831.35,a,0,0
P2,3,37,72,DST_013_M_ANG.png,900,100,hyperfair,0,a,834.35,a,0,1
P2,3,38,62,DST_051_M_ANG.png,600,400,hyperfair,0,a,785.39,a,0,1
P2,3,39,91,DST_025_F_HPY.png,500,500,fair,0,a,1022.61,a,1,0
P2,3,40,133,DST_030_M_HPY.png,600,400,hyperfair,0,a,1492.46,a,1,1
P2,3,41,14,DST_005_F_ANG.png,500,500,fair,0,a,712.83,a,0,0
P2,3,42,123,DST_077_M_HPY.png,500,500,fair,0,a,624.15,a,1,1
P2,3,43,108,DST_138_F_HPY.png,900,100,hyperfair,0,a,660.08,a,1,0
P2,3,44,71,DST_012_M_ANG.png,900,100,hyperfair,0,a,652.11,a,0,1
P2,3,45,61,DST_010_M_ANG.png,600,400,hyperfair,0,a,624.29,a,0,1
P2,3,46,87,DST_046_F_HPY.png,500,500,fair,0,a,741.79,a,1,0
P2,3,47,25,DST_029_F_ANG.png,600,400,hyperfair,0,a,742.03,a,0,0
P2,3,48,48,DST_056_M_ANG.png,400,600,unfair,0,j,1415.29,a,0,1
P2,3,49,92,DST_133_F_HPY.png,500,500,fair,0,a,686.68,a,1,0
P2,3,50,57,DST_088_M_ANG.png,500,500,fair,0,a,662.37,a,0,1
P2,3,51,84,DST_129_F_HPY.png,400,600,unfair,0,a,936.62,a,1,0
P2,3,52,32,DST_182_F_ANG.png,800,200,hyperfair,0,a,691.83,a,0,0
P2,3,53,7,DST_009_F_ANG.png,300,700,unfair,0,j,967.27,a,0,0
P2,3,54,75,DST_142_F_HPY.png,100,900,unfair,0,j,783.17,a,1,0
P2,3,55,127,DST_115_M_HPY.png,500,500,fair,0,a,655.18,a,1,1
P2,3,56,12,DST_040_F_ANG.png,400,600,unfair,0,a,770.58,a,0,0
P2,3,57,52,DST_097_M_ANG.png,500,500,fair,0,a,642.06,a,0,1
P2,3,58,119,DST_074_M_HPY.png,400,600,unfair,0,a,649.29,a,1,1
P2,3,59,99,DST_186_F_HPY.png,600,400,hyperfair,0,a,572.82,a,1,0
P2,3,60,46,DST_048_M_ANG.png,400,600,unfair,0,a,693.87,a,0,1
P2,3,61,134,DST_064_M_HPY.png,600,400,hyperfair,0,a,696.8,a,1,1
P2,3,62,132,DST_122_M_HPY.png,500,500,fair,0,a,635.88,a,1,1
P2,3,63,106,DST_027_F_HPY.png,900,100,hyperfair,0,a,848.95,a,1,0
P2,3,64,56,DST_120_M_ANG.png,500,500,fair,0,a,749.62,a,0,1
P2,3,65,51,DST_090_M_ANG.png,500,500,fair,0,a,594.82,a,0,1
P2,3,66,39,DST_031_M_ANG.png,100,900,unfair,0,j,1112.71,a,0,1
P2,3,67,49,DST_068_M_ANG.png,500,500,fair,0,a,776.92,a,0,1
P2,3,68,104,DST_182_F_HPY.png,800,200,hyperfair,0,a,679.84,a,1,0
P2,3,69,136,DST_093_M_HPY.png,700,300,hyperfair,0,a,601.53,a,1,1
P2,3,70,9,DST_129_F_ANG.png,300,700,unfair,0,j,848.58,a,0,0
P2,3,71,143,DST_083_M_HPY.png,900,100,hyperfair,0,a,605.7,a,1,1
P2,3,72,93,DST_146_F_HPY.png,500,500,fair,0,a,690.38,a,1,0
P2,3,73,117,DST_015_M_HPY.png,300,700,unfair,0,j,1182.15,a,1,1
P2,3,74,85,DST_002_F_HPY.png,500,500,fair,0,a,782.13,a,1,0
P2,3,75,35,DST_173_F_ANG.png,900,100,hyperfair,0,a,605.1,a,0,0
P2,3,76,140,DST_018_M_HPY.png,800,200,hyperfair,0,a,2740.98,a,1,1
P2,3,77,102,DST_177_F_HPY.png,700,300,hyperfair,0,a,647.3,a,1,0
P2,3,78,83,DST_124_F_HPY.png,400,600,unfair,0,a,828.48,a,1,0
P2,3,79,67,DST_020_M_ANG.png,800,200,hyperfair,0,a,650.08,a,0,1
P2,3,80,31,DST_171_F_ANG.png,800,200,hyperfair,0,a,546.47,a,0,0
P2,3,81,33,DST_002_F_ANG.png,800,200,hyperfair,0,a,641.76,a,0,0
P2,3,82,88,DST_131_F_HPY.png,500,500,fair,0,a,917.76,a,1,0
P2,3,83,60,DST_118_M_ANG.png,500,500,fair,0,a,691.18,a,0,1
P2,3,84,16,DST_131_F_ANG.png,500,500,fair,0,a,602.46,a,0,0
P2,3,85,81,DST_135_F_HPY.png,300,700,unfair,0,j,863.89,a,1,0
P2,3,86,5,DST_124_F_ANG.png,200,800,unfair,0,j,876.62,a,0,0
P2,3,87,76,DST_183_F_HPY.png,200,800,unfair,0,j,668.74,a,1,0
P2,3,88,18,DST_023_F_ANG.png,500,500,fair,0,a,752.85,a,0,0
P2,3,89,27,DST_157_F_ANG.png,600,400,hyperfair,0,a,608.23,a,0,0
P2,3,90,77,DST_017_F_HPY.png,200,800,unfair,0,j,855.21,a,1,0
P2,3,91,70,DST_115_M_ANG.png,900,100,hyperfair,0,a,660.79,a,0,1
P2,3,92,54,DST_022_M_ANG.png,500,500,fair,0,a,760.45,a,0,1
P2,3,93,64,DST_106_M_ANG.png,700,300,hyperfair,0,a,647.63,a,0,1
P2,3,94,43,DST_047_M_ANG.png,300,700,unfair,0,j,814.16,a,0,1
P2,3,95,11,DST_137_F_ANG.png,400,600,unfair,0,a,843.49,a,0,0
P2,3,96,86,DST_040_F_HPY.png,500,500,fair,0,a,650.79,a,1,0
P2,3,97,130,DST_056_M_HPY.png,500,500,fair,0,a,642.27,a,1,1
P2,3,98,95,DST_161_F_HPY.png,500,500,fair,0,a,620.88,a,1,0
P2,3,99,65,DST_110_M_ANG.png,700,300,hyperfair,0,a,785.81,a,0,1
P2,3,100,121,DST_012_M_HPY.png,500,500,fair,0,a,578.68,a,1,1
P2,3,101,22,DST_186_F_ANG.png,500,500,fair,0,a,527.56,a,0,0
P2,3,102,97,DST_173_F_HPY.png,600,400,hyperfair,0,a,619.24,a,1,0
P2,3,103,41,DST_016_M_ANG.png,200,800,unfair,0,j,768.76,a,0,1
P2,3,104,69,DST_074_M_ANG.png,800,200,hyperfair,0,a,849.73,a,0,1
P2,3,105,21,DST_174_F_ANG.png,500,500,fair,0,a,621.74,a,0,0
P2,3,106,26,DST_135_F_ANG.png,600,400,hyperfair,0,a,596.17,a,0,0
P2,3,107,96,DST_162_F_HPY.png,500,500,fair,0,a,2937.48,a,1,0
P2,3,108,109,DST_026_M_HPY.png,100,900,unfair,0,j,787.29,a,1,1
P2,3,109,90,DST_164_F_HPY.png,500,500,fair,0,a,639.37,a,1,0
P2,3,110,10,DST_133_F_ANG.png,400,600,unfair,0,a,802.77,a,0,0
P2,3,111,13,DST_167_F_ANG.png,500,500,fair,0,a,610.11,a,0,0
P2,3,112,17,DST_145_F_ANG.png,500,500,fair,0,a,605.59,a,0,0
P2,3,113,111,DST_097_M_HPY.png,100,900,unfair,0,j,755.89,a,1,1
P2,3,114,1,DST_046_F_ANG.png,100,900,unfair,0,j,1032.57,a,0,0
P2,3,115,44,DST_079_M_ANG.png,300,700,unfair,0,j,587.46,a,0,1
P2,3,116,116,DST_010_M_HPY.png,300,700,unfair,0,j,840.91,a,1,1
P2,3,117,24,DST_147_F_ANG.png,500,500,fair,0,a,1058.91,a,0,0
P2,3,118,120,DST_084_M_HPY.png,400,600,unfair,0,a,615.82,a,1,1
P2,3,119,68,DST_064_M_ANG.png,800,200,hyperfair,0,a,556.97,a,0,1
P2,3,120,53,DST_103_M_ANG.png,500,500,fair,0,a,758.71,a,0,1
P2,3,121,118,DST_048_M_HPY.png,400,600,unfair,0,a,693.86,a,1,1
P2,3,122,40,DST_119_M_ANG.png,200,800,unfair,0,j,841.89,a,0,1
P2,3,123,78,DST_145_F_HPY.png,200,800,unfair,0,j,682.99,a,1,0
P2,3,124,98,DST_174_F_HPY.png,600,400,hyperfair,0,a,670.64,a,1,0
P2,3,125,80,DST_128_F_HPY.png,300,700,unfair,0,j,754.28,a,1,0
P2,3,126,113,DST_016_M_HPY.png,200,800,unfair,0,j,901.24,a,1,1
P2,3,127,2,DST_017_F_ANG.png,100,900,unfair,0,j,801.5,a,0,0
P2,3,128,73,DST_029_F_HPY.png,100,900,unfair,0,j,788.44,a,1,0
P2,3,129,59,DST_098_M_ANG.png,500,500,fair,0,a,800.57,a,0,1
P2,3,130,144,DST_091_M_HPY.png,900,100,hyperfair,0,a,704.45,a,1,1
P2,3,131,100,DST_065_F_HPY.png,700,300,hyperfair,0,a,1220.71,a,1,0
P2,3,132,129,DST_031_M_HPY.png,500,500,fair,0,a,515.19,a,1,1
P2,3,133,131,DST_088_M_HPY.png,500,500,fair,0,a,576.93,a,1,1
P2,3,134,101,DST_157_F_HPY.png,700,300,hyperfair,0,a,696.35,a,1,0
P2,3,135,28,DST_161_F_ANG.png,700,300,hyperfair,0,a,638.9,a,0,0
P2,3,136,15,DST_123_F_ANG.png,500,500,fair,0,a,737.88,a,0,0
P2,3,137,63,DST_081_M_ANG.png,600,400,hyperfair,0,a,484,a,0,1
P2,3,138,107,DST_130_F_HPY.png,900,100,hyperfair,0,a,702.9,a,1,0
P2,3,139,37,DST_071_M_ANG.png,100,900,unfair,0,j,1313.36,a,0,1
P2,3,140,50,DST_089_M_ANG.png,500,500,fair,0,a,636.75,a,0,1
P2,3,141,66,DST_114_M_ANG.png,700,300,hyperfair,0,a,705.85,a,0,1
P2,3,142,114,DST_098_M_HPY.png,200,800,unfair,0,j,864.82,a,1,1
P2,3,143,135,DST_071_M_HPY.png,600,400,hyperfair,0,a,605.73,a,1,1
P2,3,144,137,DST_089_M_HPY.png,700,300,hyperfair,0,a,534.62,a,1,1
P3,3,1,11,DST_137_F_ANG.png,400,600,unfair,0,a,2114.64,a,0,0
P3,3,2,121,DST_012_M_HPY.png,500,500,fair,0,a,988.81,a,1,1
P3,3,3,85,DST_002_F_HPY.png,500,500,fair,0,a,600.51,a,1,0
P3,3,4,9,DST_129_F_ANG.png,300,700,unfair,0,a,812.02,a,0,0
P3,3,5,1,DST_046_F_ANG.png,100,900,unfair,0,j,1224.88,a,0,0
P3,3,6,41,DST_016_M_ANG.png,200,800,unfair,0,j,2486.07,a,0,1
P3,3,7,75,DST_142_F_HPY.png,100,900,unfair,0,j,1537.19,a,1,0
P3,3,8,119,DST_074_M_HPY.png,400,600,unfair,0,a,737.89,a,1,1
P3,3,9,13,DST_167_F_ANG.png,500,500,fair,0,a,609.61,a,0,0
P3,3,10,3,DST_138_F_ANG.png,100,900,unfair,0,j,888.64,a,0,0
P3,3,11,112,DST_116_M_HPY.png,200,800,unfair,0,j,930.89,a,1,1
P3,3,12,64,DST_106_M_ANG.png,700,300,hyperfair,0,a,843.39,a,0,1
P3,3,13,105,DST_185_F_HPY.png,800,200,hyperfair,0,a,967.54,a,1,0
P3,3,14,123,DST_077_M_HPY.png,500,500,fair,0,a,849.28,a,1,1
P3,3,15,6,DST_130_F_ANG.png,200,800,unfair,0,j,1341.68,a,0,0
P3,3,16,65,DST_110_M_ANG.png,700,300,hyperfair,0,a,710.53,a,0,1
P3,3,17,97,DST_173_F_HPY.png,600,400,hyperfair,0,a,744.1,a,1,0
P3,3,18,70,DST_115_M_ANG.png,900,100,hyperfair,0,a,921.26,a,0,1
P3,3,19,15,DST_123_F_ANG.png,500,500,fair,0,a,771.59,a,0,0
P3,3,20,139,DST_119_M_HPY.png,800,200,hyperfair,0,a,1250.66,a,1,1
P3,3,21,12,DST_040_F_ANG.png,400,600,unfair,0,a,1311.21,a,0,0
P3,3,22,132,DST_122_M_HPY.png,500,500,fair,0,a,968.75,a,1,1
P3,3,23,27,DST_157_F_ANG.png,600,400,hyperfair,0,a,831.94,a,0,0
P3,3,24,37,DST_071_M_ANG.png,100,900,unfair,0,j,1133.79,a,0,1
P3,3,25,56,DST_120_M_ANG.png,500,500,fair,0,a,990.59,a,0,1
P3,3,26,30,DST_036_F_ANG.png,700,300,hyperfair,0,a,1828.94,a,0,0
P3,3,27,59,DST_098_M_ANG.png,500,500,fair,0,a,889.05,a,0,1
P3,3,28,100,DST_065_F_HPY.png,700,300,hyperfair,0,a,949.52,a,1,0
P3,3,29,104,DST_182_F_HPY.png,800,200,hyperfair,0,a,1518.57,a,1,0
P3,3,30,53,DST_103_M_ANG.png,500,500,fair,0,a,704.88,a,0,1
P3,3,31,26,DST_135_F_ANG.png,600,400,hyperfair,0,a,1106.85,a,0,0
P3,3,32,83,DST_124_F_HPY.png,400,600,unfair,0,a,1221.04,a,1,0
P3,3,33,115,DST_103_M_HPY.png,300,700,unfair,0,a,1745.22,a,1,1
P3,3,34,130,DST_056_M_HPY.png,500,500,fair,0,a,746.48,a,1,1
P3,3,35,58,DST_091_M_ANG.png,500,500,fair,0,a,653.95,a,0,1
P3,3,36,137,DST_089_M_HPY.png,700,300,hyperfair,0,a,817.33,a,1,1
P3,3,37,43,DST_047_M_ANG.png,300,700,unfair,0,j,1420.59,a,0,1
P3,3,38,122,DST_047_M_HPY.png,500,500,fair,0,a,882.88,a,1,1
P3,3,39,80,DST_128_F_HPY.png,300,700,unfair,0,j,1036.15,a,1,0
P3,3,40,138,DST_118_M_HPY.png,700,300,hyperfair,0,a,911.57,a,1,1
P3,3,41,98,DST_174_F_HPY.png,600,400,hyperfair,0,a,857.69,a,1,0
P3,3,42,62,DST_051_M_ANG.png,600,400,hyperfair,0,a,664.72,a,0,1
P3,3,43,79,DST_149_F_HPY.png,300,700,unfair,0,j,1899.07,a,1,0
P3,3,44,17,DST_145_F_ANG.png,500,500,fair,0,a,845.89,a,0,0
P3,3,45,92,DST_133_F_HPY.png,500,500,fair,0,a,670.96,a,1,0
P3,3,46,14,DST_005_F_ANG.png,500,500,fair,0,a,727.47,a,0,0
P3,3,47,24,DST_147_F_ANG.png,500,500,fair,0,a,731.75,a,0,0
P3,3,48,39,DST_031_M_ANG.png,100,900,unfair,0,j,1035.53,a,0,1
P3,3,49,42,DST_026_M_ANG.png,200,800,unfair,0,j,1313.6,a,0,1
P3,3,50,84,DST_129_F_HPY.png,400,600,unfair,0,a,1066.33,a,1,0
P3,3,51,36,DST_004_F_ANG.png,900,100,hyperfair,0,a,829.89,a,0,0
P3,3,52,34,DST_042_F_ANG.png,900,100,hyperfair,0,a,816.08,a,0,0
P3,3,53,10,DST_133_F_ANG.png,400,600,unfair,0,a,1162.48,a,0,0
P3,3,54,95,DST_161_F_HPY.png,500,500,fair,0,a,620.17,a,1,0
P3,3,55,114,DST_098_M_HPY.png,200,800,unfair,0,j,1027.25,a,1,1
P3,3,56,142,DST_081_M_HPY.png,900,100,hyperfair,0,a,633.51,a,1,1
P3,3,57,93,DST_146_F_HPY.png,500,500,fair,0,a,796.59,a,1,0
P3,3,58,29,DST_183_F_ANG.png,700,300,hyperfair,0,a,988.34,a,0,0
P3,3,59,32,DST_182_F_ANG.png,800,200,hyperfair,0,a,658.1,a,0,0
P3,3,60,33,DST_002_F_ANG.png,800,200,hyperfair,0,a,794.28,a,0,0
P3,3,61,73,DST_029_F_HPY.png,100,900,unfair,0,j,1239.83,a,1,0
P3,3,62,78,DST_145_F_HPY.png,200,800,unfair,0,j,1667.35,a,1,0
P3,3,63,2,DST_017_F_ANG.png,100,900,unfair,0,j,1039,a,0,0
P3,3,64,141,DST_079_M_HPY.png,800,200,hyperfair,0,a,627.77,a,1,1
P3,3,65,108,DST_138_F_HPY.png,900,100,hyperfair,0,a,712,a,1,0
P3,3,66,16,DST_131_F_ANG.png,500,500,fair,0,a,681.11,a,0,0
P3,3,67,81,DST_135_F_HPY.png,300,700,unfair,0,j,1164.14,a,1,0
P3,3,68,96,DST_162_F_HPY.png,500,500,fair,0,a,907.71,a,1,0
P3,3,69,125,DST_096_M_HPY.png,500,500,fair,0,a,633.43,a,1,1
P3,3,70,5,DST_124_F_ANG.png,200,800,unfair,0,j,892.44,a,0,0
P3,3,71,40,DST_119_M_ANG.png,200,800,unfair,0,j,1147.3,a,0,1
P3,3,72,107,DST_130_F_HPY.png,900,100,hyperfair,0,a,698.15,a,1,0
P3,3,73,35,DST_173_F_ANG.png,900,100,hyperfair,0,a,1016.72,a,0,0
P3,3,74,113,DST_016_M_HPY.png,200,800,unfair,0,j,1456.22,a,1,1
P3,3,75,23,DST_032_F_ANG.png,500,500,fair,0,a,755.04,a,0,0
P3,3,76,99,DST_186_F_HPY.png,600,400,hyperfair,0,a,1058.89,a,1,0
P3,3,77,118,DST_048_M_HPY.png,400,600,unfair,0,a,1816.28,a,1,1
P3,3,78,25,DST_029_F_ANG.png,600,400,hyperfair,0,a,1551,a,0,0
P3,3,79,45,DST_099_M_ANG.png,300,700,unfair,0,j,2271.03,a,0,1
P3,3,80,48,DST_056_M_ANG.png,400,600,unfair,0,a,963.5,a,0,1
P3,3,81,91,DST_025_F_HPY.png,500,500,fair,0,a,939.64,a,1,0
P3,3,82,103,DST_126_F_HPY.png,800,200,hyperfair,0,a,1734.57,a,1,0
P3,3,83,49,DST_068_M_ANG.png,500,500,fair,0,a,750.76,a,0,1
P3,3,84,128,DST_022_M_HPY.png,500,500,fair,0,a,675.58,a,1,1
P3,3,85,90,DST_164_F_HPY.png,500,500,fair,0,a,604.11,a,1,0
P3,3,86,7,DST_009_F_ANG.png,300,700,unfair,0,j,1410.28,a,0,0
P3,3,87,46,DST_048_M_ANG.png,400,600,unfair,0,a,1142.08,a,0,1
P3,3,88,129,DST_031_M_HPY.png,500,500,fair,0,a,760.85,a,1,1
P3,3,89,19,DST_025_F_ANG.png,500,500,fair,0,a,860.19,a,0,0
P3,3,90,88,DST_131_F_HPY.png,500,500,fair,0,a,748.86,a,1,0
P3,3,91,117,DST_015_M_HPY.png,300,700,unfair,0,a,1325.47,a,1,1
P3,3,92,110,DST_086_M_HPY.png,100,900,unfair,0,j,1543.38,a,1,1
P3,3,93,126,DST_114_M_HPY.png,500,500,fair,0,a,1063.44,a,1,1
P3,3,94,52,DST_097_M_ANG.png,500,500,fair,0,a,894.82,a,0,1
P3,3,95,8,DST_149_F_ANG.png,300,700,unfair,0,j,1385.04,a,0,0
P3,3,96,28,DST_161_F_ANG.png,700,300,hyperfair,0,a,1872.63,a,0,0
P3,3,97,135,DST_071_M_HPY.png,600,400,hyperfair,0,a,1092,a,1,1
P3,3,98,67,DST_020_M_ANG.png,800,200,hyperfair,0,a,823.35,a,0,1
P3,3,99,61,DST_010_M_ANG.png,600,400,hyperfair,0,a,1011.27,a,0,1
P3,3,100,109,DST_026_M_HPY.png,100,900,unfair,0,j,1689.06,a,1,1
P3,3,101,66,DST_114_M_ANG.png,700,300,hyperfair,0,a,1381.55,a,0,1
P3,3,102,124,DST_013_M_HPY.png,500,500,fair,0,a,1787.15,a,1,1
P3,3,103,71,DST_012_M_ANG.png,900,100,hyperfair,0,a,1075.36,a,0,1
P3,3,104,140,DST_018_M_HPY.png,800,200,hyperfair,0,a,1159.14,a,1,1
P3,3,105,120,DST_084_M_HPY.png,400,600,unfair,0,a,2760.38,a,1,1
P3,3,106,47,DST_030_M_ANG.png,400,600,unfair,0,a,1099.72,a,0,1
P3,3,107,20,DST_164_F_ANG.png,500,500,fair,0,a,794.25,a,0,0
P3,3,108,60,DST_118_M_ANG.png,500,500,fair,0,a,910.83,a,0,1
P3,3,109,18,DST_023_F_ANG.png,500,500,fair,0,a,656.66,a,0,0
P3,3,110,111,DST_097_M_HPY.png,100,900,unfair,0,j,1030.59,a,1,1
P3,3,111,21,DST_174_F_ANG.png,500,500,fair,0,a,492.93,a,0,0
P3,3,112,76,DST_183_F_HPY.png,200,800,unfair,0,a,614.64,a,1,0
P3,3,113,54,DST_022_M_ANG.png,500,500,fair,0,a,670.18,a,0,1
P3,3,114,87,DST_046_F_HPY.png,500,500,fair,0,a,757.55,a,1,0
P3,3,115,127,DST_115_M_HPY.png,500,500,fair,0,a,520.72,a,1,1
P3,3,116,94,DST_159_F_HPY.png,500,500,fair,0,a,615.83,a,1,0
P3,3,117,4,DST_024_F_ANG.png,200,800,unfair,0,a,1178.57,a,0,0
P3,3,118,55,DST_096_M_ANG.png,500,500,fair,0,a,842.04,a,0,1
P3,3,119,106,DST_027_F_HPY.png,900,100,hyperfair,0,a,581.64,a,1,0
P3,3,120,143,DST_083_M_HPY.png,900,100,hyperfair,0,a,849.78,a,1,1
P3,3,121,44,DST_079_M_ANG.png,300,700,unfair,0,a,1500.07,a,0,1
P3,3,122,68,DST_064_M_ANG.png,800,200,hyperfair,0,a,751.28,a,0,1
P3,3,123,77,DST_017_F_HPY.png,200,800,unfair,0,a,1039.27,a,1,0
P3,3,124,86,DST_040_F_HPY.png,500,500,fair,0,a,675.66,a,1,0
P3,3,125,134,DST_064_M_HPY.png,600,400,hyperfair,0,a,727.48,a,1,1
P3,3,126,101,DST_157_F_HPY.png,700,300,hyperfair,0,a,873.46,a,1,0
P3,3,127,74,DST_036_F_HPY.png,100,900,unfair,0,a,2644.2,a,1,0
P3,3,128,133,DST_030_M_HPY.png,600,400,hyperfair,0,a,889.45,a,1,1
P3,3,129,82,DST_009_F_HPY.png,400,600,unfair,0,a,1858.27,a,1,0
P3,3,130,102,DST_177_F_HPY.png,700,300,hyperfair,0,a,839.49,a,1,0
P3,3,131,38,DST_043_M_ANG.png,100,900,unfair,0,a,1746.79,a,0,1
P3,3,132,116,DST_010_M_HPY.png,300,700,unfair,0,a,893.14,a,1,1
P3,3,133,136,DST_093_M_HPY.png,700,300,hyperfair,0,a,886.68,a,1,1
P3,3,134,72,DST_013_M_ANG.png,900,100,hyperfair,0,a,1298.42,a,0,1
P3,3,135,50,DST_089_M_ANG.png,500,500,fair,0,a,1118.32,a,0,1
P3,3,136,89,DST_137_F_HPY.png,500,500,fair,0,a,547.71,a,1,0
P3,3,137,131,DST_088_M_HPY.png,500,500,fair,0,a,609.36,a,1,1
P3,3,138,31,DST_171_F_ANG.png,800,200,hyperfair,0,a,837.77,a,0,0
P3,3,139,22,DST_186_F_ANG.png,500,500,fair,0,a,929.57,a,0,0
P3,3,140,69,DST_074_M_ANG.png,800,200,hyperfair,0,a,700.53,a,0,1
P3,3,141,57,DST_088_M_ANG.png,500,500,fair,0,a,845.27,a,0,1
P3,3,142,51,DST_090_M_ANG.png,500,500,fair,0,a,671.38,a,0,1
P3,3,143,63,DST_081_M_ANG.png,600,400,hyperfair,0,a,750.92,a,0,1
P3,3,144,144,DST_091_M_HPY.png,900,100,hyperfair,0,a,624.2,a,1,1
P4,3,1,65,DST_110_M_ANG.png,700,300,hyperfair,0,a,1418.01,a,0,1
P4,3,2,51,DST_090_M_ANG.png,500,500,fair,0,a,1087.8,a,0,1
P4,3,3,129,DST_031_M_HPY.png,500,500,fair,0,a,824.02,a,1,1
P4,3,4,9,DST_129_F_ANG.png,300,700,unfair,0,j,2356.66,a,0,0
P4,3,5,104,DST_182_F_HPY.png,800,200,hyperfair,0,a,1153.65,a,1,0
P4,3,6,30,DST_036_F_ANG.png,700,300,hyperfair,0,a,1201.28,a,0,0
P4,3,7,143,DST_083_M_HPY.png,900,100,hyperfair,0,a,866.54,a,1,1
P4,3,8,141,DST_079_M_HPY.png,800,200,hyperfair,0,a,767.79,a,1,1
P4,3,9,68,DST_064_M_ANG.png,800,200,hyperfair,0,a,788.92,a,0,1
P4,3,10,107,DST_130_F_HPY.png,900,100,hyperfair,0,a,738.16,a,1,0
P4,3,11,23,DST_032_F_ANG.png,500,500,fair,0,a,658.37,a,0,0
P4,3,12,127,DST_115_M_HPY.png,500,500,fair,0,a,1498.68,a,1,1
P4,3,13,71,DST_012_M_ANG.png,900,100,hyperfair,0,a,1053.11,a,0,1
P4,3,14,106,DST_027_F_HPY.png,900,100,hyperfair,0,a,1061.32,a,1,0
P4,3,15,108,DST_138_F_HPY.png,900,100,hyperfair,0,a,1040.02,a,1,0
P4,3,16,89,DST_137_F_HPY.png,500,500,fair,0,a,898.34,a,1,0
P4,3,17,24,DST_147_F_ANG.png,500,500,fair,0,a,979.29,a,0,0
P4,3,18,28,DST_161_F_ANG.png,700,300,hyperfair,0,a,859.8,a,0,0
P4,3,19,82,DST_009_F_HPY.png,400,600,unfair,0,j,1750.72,a,1,0
P4,3,20,70,DST_115_M_ANG.png,900,100,hyperfair,0,a,1601.09,a,0,1
P4,3,21,72,DST_013_M_ANG.png,900,100,hyperfair,0,a,819.94,a,0,1
P4,3,22,34,DST_042_F_ANG.png,900,100,hyperfair,0,a,1352.05,a,0,0
P4,3,23,125,DST_096_M_HPY.png,500,500,fair,0,a,1792.27,a,1,1
P4,3,24,44,DST_079_M_ANG.png,300,700,unfair,0,j,1927.33,a,0,1
P4,3,25,116,DST_010_M_HPY.png,300,700,unfair,0,j,1404.88,a,1,1
P4,3,26,137,DST_089_M_HPY.png,700,300,hyperfair,0,a,1333.18,a,1,1
P4,3,27,142,DST_081_M_HPY.png,900,100,hyperfair,0,a,1197.13,a,1,1
P4,3,28,29,DST_183_F_ANG.png,700,300,hyperfair,0,a,1405.5,a,0,0
P4,3,29,13,DST_167_F_ANG.png,500,500,fair,0,a,2066.19,a,0,0
P4,3,30,10,DST_133_F_ANG.png,400,600,unfair,0,j,4895.24,a,0,0
P4,3,31,59,DST_098_M_ANG.png,500,500,fair,0,a,4506.01,a,0,1
P4,3,32,60,DST_118_M_ANG.png,500,500,fair,0,a,2362.04,a,0,1
P4,3,33,102,DST_177_F_HPY.png,700,300,hyperfair,0,a,950.95,a,1,0
P4,3,34,64,DST_106_M_ANG.png,700,300,hyperfair,0,a,1682.72,a,0,1
P4,3,35,26,DST_135_F_ANG.png,600,400,hyperfair,0,a,990.9,a,0,0
P4,3,36,85,DST_002_F_HPY.png,500,500,fair,0,a,1061.26,a,1,0
P4,3,37,37,DST_071_M_ANG.png,100,900,unfair,0,j,1528.73,a,0,1
P4,3,38,4,DST_024_F_ANG.png,200,800,unfair,0,j,1228.41,a,0,0
P4,3,39,63,DST_081_M_ANG.png,600,400,hyperfair,0,a,1432.02,a,0,1
P4,3,40,50,DST_089_M_ANG.png,500,500,fair,0,a,2142.55,a,0,1
P4,3,41,2,DST_017_F_ANG.png,100,900,unfair,0,j,1543.09,a,0,0
P4,3,42,92,DST_133_F_HPY.png,500,500,fair,0,a,841.51,a,1,0
P4,3,43,8,DST_149_F_ANG.png,300,700,unfair,0,j,1589.65,a,0,0
P4,3,44,110,DST_086_M_HPY.png,100,900,unfair,0,j,2052.51,a,1,1
P4,3,45,103,DST_126_F_HPY.png,800,200,hyperfair,0,a,1426.2,a,1,0
P4,3,46,79,DST_149_F_HPY.png,300,700,unfair,0,a,1383.9,a,1,0
P4,3,47,95,DST_161_F_HPY.png,500,500,fair,0,a,2656.13,a,1,0
P4,3,48,32,DST_182_F_ANG.png,800,200,hyperfair,0,a,1219.33,a,0,0
P4,3,49,39,DST_031_M_ANG.png,100,900,unfair,0,j,1074.55,a,0,1
P4,3,50,131,DST_088_M_HPY.png,500,500,fair,0,a,2198.85,a,1,1
P4,3,51,53,DST_103_M_ANG.png,500,500,fair,0,a,1139.21,a,0,1
P4,3,52,99,DST_186_F_HPY.png,600,400,hyperfair,0,a,994.71,a,1,0
P4,3,53,16,DST_131_F_ANG.png,500,500,fair,0,a,1641.92,a,0,0
P4,3,54,124,DST_013_M_HPY.png,500,500,fair,0,a,1436.57,a,1,1
P4,3,55,130,DST_056_M_HPY.png,500,500,fair,0,a,1653.85,a,1,1
P4,3,56,77,DST_017_F_HPY.png,200,800,unfair,0,j,2306.33,a,1,0
P4,3,57,7,DST_009_F_ANG.png,300,700,unfair,0,j,1669.41,a,0,0
P4,3,58,74,DST_036_F_HPY.png,100,900,unfair,0,j,1122.43,a,1,0
P4,3,59,6,DST_130_F_ANG.png,200,800,unfair,0,j,1251.71,a,0,0
P4,3,60,115,DST_103_M_HPY.png,300,700,unfair,0,j,945.78,a,1,1
P4,3,61,121,DST_012_M_HPY.png,500,500,fair,0,a,2281.82,a,1,1
P4,3,62,56,DST_120_M_ANG.png,500,500,fair,0,a,2932.05,a,0,1
P4,3,63,80,DST_128_F_HPY.png,300,700,unfair,0,j,1341.69,a,1,0
P4,3,64,42,DST_026_M_ANG.png,200,800,unfair,0,j,1333.55,a,0,1
P4,3,65,105,DST_185_F_HPY.png,800,200,hyperfair,0,a,1935.79,a,1,0
P4,3,66,76,DST_183_F_HPY.png,200,800,unfair,0,j,2001.34,a,1,0
P4,3,67,1,DST_046_F_ANG.png,100,900,unfair,0,j,1742.91,a,0,0
P4,3,68,93,DST_146_F_HPY.png,500,500,fair,0,a,2152.55,a,1,0
P4,3,69,36,DST_004_F_ANG.png,900,100,hyperfair,0,a,2993.15,a,0,0
P4,3,70,91,DST_025_F_HPY.png,500,500,fair,0,a,1255.65,a,1,0
P4,3,71,139,DST_119_M_HPY.png,800,200,hyperfair,0,a,1538.52,a,1,1
P4,3,72,55,DST_096_M_ANG.png,500,500,fair,0,a,980.55,a,0,1
P4,3,73,117,DST_015_M_HPY.png,300,700,unfair,0,j,1962.16,a,1,1
P4,3,74,38,DST_043_M_ANG.png,100,900,unfair,0,j,1130.09,a,0,1
P4,3,75,114,DST_098_M_HPY.png,200,800,unfair,0,j,1655.44,a,1,1
P4,3,76,123,DST_077_M_HPY.png,500,500,fair,0,a,901.33,a,1,1
P4,3,77,87,DST_046_F_HPY.png,500,500,fair,0,a,964.16,a,1,0
P4,3,78,112,DST_116_M_HPY.png,200,800,unfair,0,j,3194.64,a,1,1
P4,3,79,22,DST_186_F_ANG.png,500,500,fair,0,a,1688.86,a,0,0
P4,3,80,113,DST_016_M_HPY.png,200,800,unfair,0,j,1507.45,a,1,1
P4,3,81,78,DST_145_F_HPY.png,200,800,unfair,0,j,731.34,a,1,0
P4,3,82,86,DST_040_F_HPY.png,500,500,fair,0,a,1643.99,a,1,0
P4,3,83,18,DST_023_F_ANG.png,500,500,fair,0,a,1663.31,a,0,0
P4,3,84,119,DST_074_M_HPY.png,400,600,unfair,0,j,1850.29,a,1,1
P4,3,85,11,DST_137_F_ANG.png,400,600,unfair,0,j,2161.83,a,0,0
P4,3,86,3,DST_138_F_ANG.png,100,900,unfair,0,j,1018.95,a,0,0
P4,3,87,49,DST_068_M_ANG.png,500,500,fair,0,a,1280.73,a,0,1
P4,3,88,134,DST_064_M_HPY.png,600,400,hyperfair,0,a,1485.53,a,1,1
P4,3,89,33,DST_002_F_ANG.png,800,200,hyperfair,0,a,961.72,a,0,0
P4,3,90,48,DST_056_M_ANG.png,400,600,unfair,0,j,1465.91,a,0,1
P4,3,91,14,DST_005_F_ANG.png,500,500,fair,0,a,2430.54,a,0,0
P4,3,92,17,DST_145_F_ANG.png,500,500,fair,0,a,1392.62,a,0,0
P4,3,93,111,DST_097_M_HPY.png,100,900,unfair,0,j,1939.65,a,1,1
P4,3,94,96,DST_162_F_HPY.png,500,500,fair,0,a,2226.92,a,1,0
P4,3,95,46,DST_048_M_ANG.png,400,600,unfair,0,j,1192.77,a,0,1
P4,3,96,40,DST_119_M_ANG.png,200,800,unfair,0,j,1063.41,a,0,1
P4,3,97,98,DST_174_F_HPY.png,600,400,hyperfair,0,a,988.08,a,1,0
P4,3,98,122,DST_047_M_HPY.png,500,500,fair,0,a,3698.11,a,1,1
P4,3,99,58,DST_091_M_ANG.png,500,500,fair,0,a,1410.72,a,0,1
P4,3,100,128,DST_022_M_HPY.png,500,500,fair,0,a,1084.25,a,1,1
P4,3,101,52,DST_097_M_ANG.png,500,500,fair,0,a,1252,a,0,1
P4,3,102,136,DST_093_M_HPY.png,700,300,hyperfair,0,a,927.71,a,1,1
P4,3,103,66,DST_114_M_ANG.png,700,300,hyperfair,0,a,1196.91,a,0,1
P4,3,104,41,DST_016_M_ANG.png,200,800,unfair,0,j,1547.57,a,0,1
P4,3,105,15,DST_123_F_ANG.png,500,500,fair,0,a,1003.26,a,0,0
P4,3,106,67,DST_020_M_ANG.png,800,200,hyperfair,0,a,1218.39,a,0,1
P4,3,107,73,DST_029_F_HPY.png,100,900,unfair,0,j,912.75,a,1,0
P4,3,108,100,DST_065_F_HPY.png,700,300,hyperfair,0,a,1052.39,a,1,0
P4,3,109,61,DST_010_M_ANG.png,600,400,hyperfair,0,a,1038.87,a,0,1
P4,3,110,19,DST_025_F_ANG.png,500,500,fair,0,a,1563.15,a,0,0
P4,3,111,25,DST_029_F_ANG.png,600,400,hyperfair,0,a,1115.21,a,0,0
P4,3,112,21,DST_174_F_ANG.png,500,500,fair,0,a,1662.46,a,0,0
P4,3,113,69,DST_074_M_ANG.png,800,200,hyperfair,0,a,1112.72,a,0,1
P4,3,114,20,DST_164_F_ANG.png,500,500,fair,0,a,2843.8,a,0,0
P4,3,115,144,DST_091_M_HPY.png,900,100,hyperfair,0,a,1350.84,a,1,1
P4,3,116,90,DST_164_F_HPY.png,500,500,fair,0,a,944.98,a,1,0
P4,3,117,81,DST_135_F_HPY.png,300,700,unfair,0,j,1003.11,a,1,0
P4,3,118,133,DST_030_M_HPY.png,600,400,hyperfair,0,a,865.96,a,1,1
P4,3,119,135,DST_071_M_HPY.png,600,400,hyperfair,0,a,1187.07,a,1,1
P4,3,120,88,DST_131_F_HPY.png,500,500,fair,0,a,1203.56,a,1,0
P4,3,121,75,DST_142_F_HPY.png,100,900,unfair,0,j,911.61,a,1,0
P4,3,122,12,DST_040_F_ANG.png,400,600,unfair,0,j,1084.44,a,0,0
P4,3,123,126,DST_114_M_HPY.png,500,500,fair,0,a,1535.34,a,1,1
P4,3,124,31,DST_171_F_ANG.png,800,200,hyperfair,0,a,1327.54,a,0,0
P4,3,125,83,DST_124_F_HPY.png,400,600,unfair,0,j,1736.82,a,1,0
P4,3,126,35,DST_173_F_ANG.png,900,100,hyperfair,0,a,1076.79,a,0,0
P4,3,127,132,DST_122_M_HPY.png,500,500,fair,0,a,1143.99,a,1,1
P4,3,128,138,DST_118_M_HPY.png,700,300,hyperfair,0,a,3096.98,a,1,1
P4,3,129,62,DST_051_M_ANG.png,600,400,hyperfair,0,a,1563.32,a,0,1
P4,3,130,47,DST_030_M_ANG.png,400,600,unfair,0,j,2749.18,a,0,1
P4,3,131,94,DST_159_F_HPY.png,500,500,fair,0,a,1899.2,a,1,0
P4,3,132,120,DST_084_M_HPY.png,400,600,unfair,0,j,1278.75,a,1,1
P4,3,133,57,DST_088_M_ANG.png,500,500,fair,0,a,2762.11,a,0,1
P4,3,134,140,DST_018_M_HPY.png,800,200,hyperfair,0,a,1418.64,a,1,1
P4,3,135,118,DST_048_M_HPY.png,400,600,unfair,0,j,4575.83,a,1,1
P4,3,136,43,DST_047_M_ANG.png,300,700,unfair,0,j,920.22,a,0,1
P4,3,137,101,DST_157_F_HPY.png,700,300,hyperfair,0,a,3921.72,a,1,0
P4,3,138,54,DST_022_M_ANG.png,500,500,fair,0,a,1828.45,a,0,1
P4,3,139,45,DST_099_M_ANG.png,300,700,unfair,0,j,1143.74,a,0,1
P4,3,140,97,DST_173_F_HPY.png,600,400,hyperfair,0,a,2010.16,a,1,0
P4,3,141,27,DST_157_F_ANG.png,600,400,hyperfair,0,a,1068.01,a,0,0
P4,3,142,84,DST_129_F_HPY.png,400,600,unfair,0,j,6734.75,a,1,0
P4,3,143,5,DST_124_F_ANG.png,200,800,unfair,0,j,1327.86,a,0,0
P4,3,144,109,DST_026_M_HPY.png,100,900,unfair,0,j,1450.13,a,1,1
P5,3,1,44,DST_079_M_ANG.png,300,700,unfair,0,a,4251.72,a,0,1
P5,3,2,23,DST_032_F_ANG.png,500,500,fair,0,a,5522.15,a,0,0
P5,3,3,79,DST_149_F_HPY.png,300,700,unfair,0,a,772.66,a,1,0
P5,3,4,8,DST_149_F_ANG.png,300,700,unfair,0,a,776.64,a,0,0
P5,3,5,28,DST_161_F_ANG.png,700,300,hyperfair,0,a,585,a,0,0
P5,3,6,137,DST_089_M_HPY.png,700,300,hyperfair,0,a,710.5,a,1,1
P5,3,7,126,DST_114_M_HPY.png,500,500,fair,0,a,1000.47,a,1,1
P5,3,8,142,DST_081_M_HPY.png,900,100,hyperfair,0,a,2431.98,a,1,1
P5,3,9,129,DST_031_M_HPY.png,500,500,fair,0,a,1022.62,a,1,1
P5,3,10,85,DST_002_F_HPY.png,500,500,fair,0,a,1050.36,a,1,0
P5,3,11,140,DST_018_M_HPY.png,800,200,hyperfair,0,a,1676.89,a,1,1
P5,3,12,95,DST_161_F_HPY.png,500,500,fair,0,a,1803.12,a,1,0
P5,3,13,18,DST_023_F_ANG.png,500,500,fair,0,a,1206.02,a,0,0
P5,3,14,64,DST_106_M_ANG.png,700,300,hyperfair,0,a,884.77,a,0,1
P5,3,15,55,DST_096_M_ANG.png,500,500,fair,0,a,992.44,a,0,1
P5,3,16,65,DST_110_M_ANG.png,700,300,hyperfair,0,a,840.12,a,0,1
P5,3,17,119,DST_074_M_HPY.png,400,600,unfair,0,a,964.78,a,1,1
P5,3,18,89,DST_137_F_HPY.png,500,500,fair,0,a,894.01,a,1,0
P5,3,19,17,DST_145_F_ANG.png,500,500,fair,0,a,784.04,a,0,0
P5,3,20,113,DST_016_M_HPY.png,200,800,unfair,0,a,879.88,a,1,1
P5,3,21,9,DST_129_F_ANG.png,300,700,unfair,0,a,939.6,a,0,0
P5,3,22,71,DST_012_M_ANG.png,900,100,hyperfair,0,a,581.99,a,0,1
P5,3,23,143,DST_083_M_HPY.png,900,100,hyperfair,0,a,962.68,a,1,1
P5,3,24,48,DST_056_M_ANG.png,400,600,unfair,0,a,1067.19,a,0,1
P5,3,25,49,DST_068_M_ANG.png,500,500,fair,0,a,1232.79,a,0,1
P5,3,26,21,DST_174_F_ANG.png,500,500,fair,0,a,434.91,a,0,0
P5,3,27,57,DST_088_M_ANG.png,500,500,fair,0,a,1060.74,a,0,1
P5,3,28,115,DST_103_M_HPY.png,300,700,unfair,0,a,1193.79,a,1,1
P5,3,29,72,DST_013_M_ANG.png,900,100,hyperfair,0,a,761.18,a,0,1
P5,3,30,26,DST_135_F_ANG.png,600,400,hyperfair,0,a,618.24,a,0,0
P5,3,31,38,DST_043_M_ANG.png,100,900,unfair,0,a,784.71,a,0,1
P5,3,32,80,DST_128_F_HPY.png,300,700,unfair,0,a,931.53,a,1,0
P5,3,33,135,DST_071_M_HPY.png,600,400,hyperfair,0,a,4526.63,a,1,1
P5,3,34,105,DST_185_F_HPY.png,800,200,hyperfair,0,a,729.74,a,1,0
P5,3,35,56,DST_120_M_ANG.png,500,500,fair,0,a,940.22,a,0,1
P5,3,36,11,DST_137_F_ANG.png,400,600,unfair,0,a,933.51,a,0,0
P5,3,37,96,DST_162_F_HPY.png,500,500,fair,0,a,2492.8,a,1,0
P5,3,38,41,DST_016_M_ANG.png,200,800,unfair,0,a,1610.67,a,0,1
P5,3,39,82,DST_009_F_HPY.png,400,600,unfair,0,a,969.3,a,1,0
P5,3,40,63,DST_081_M_ANG.png,600,400,hyperfair,0,a,1634.15,a,0,1
P5,3,41,86,DST_040_F_HPY.png,500,500,fair,0,a,1553.18,a,1,0
P5,3,42,25,DST_029_F_ANG.png,600,400,hyperfair,0,a,3427.42,a,0,0
P5,3,43,99,DST_186_F_HPY.png,600,400,hyperfair,0,a,669.16,a,1,0
P5,3,44,108,DST_138_F_HPY.png,900,100,hyperfair,0,a,676.16,a,1,0
P5,3,45,36,DST_004_F_ANG.png,900,100,hyperfair,0,a,602.65,a,0,0
P5,3,46,103,DST_126_F_HPY.png,800,200,hyperfair,0,a,657.57,a,1,0
P5,3,47,84,DST_129_F_HPY.png,400,600,unfair,0,a,1574.49,a,1,0
P5,3,48,88,DST_131_F_HPY.png,500,500,fair,0,a,1208.72,a,1,0
P5,3,49,40,DST_119_M_ANG.png,200,800,unfair,0,a,422.24,a,0,1
P5,3,50,67,DST_020_M_ANG.png,800,200,hyperfair,0,a,4758.25,a,0,1
P5,3,51,107,DST_130_F_HPY.png,900,100,hyperfair,0,a,2054.64,a,1,0
P5,3,52,122,DST_047_M_HPY.png,500,500,fair,0,a,1109.14,a,1,1
P5,3,53,39,DST_031_M_ANG.png,100,900,unfair,0,a,1350.49,a,0,1
P5,3,54,52,DST_097_M_ANG.png,500,500,fair,0,a,1169.24,a,0,1
P5,3,55,109,DST_026_M_HPY.png,100,900,unfair,0,a,1329.66,a,1,1
P5,3,56,19,DST_025_F_ANG.png,500,500,fair,0,a,2014.42,a,0,0
P5,3,57,139,DST_119_M_HPY.png,800,200,hyperfair,0,a,3371.64,a,1,1
P5,3,58,117,DST_015_M_HPY.png,300,700,unfair,0,a,1077.82,a,1,1
P5,3,59,20,DST_164_F_ANG.png,500,500,fair,0,a,1066.72,a,0,0
P5,3,60,59,DST_098_M_ANG.png,500,500,fair,0,a,770.39,a,0,1
P5,3,61,60,DST_118_M_ANG.png,500,500,fair,0,a,951.05,a,0,1
P5,3,62,104,DST_182_F_HPY.png,800,200,hyperfair,0,a,2126.65,a,1,0
P5,3,63,27,DST_157_F_ANG.png,600,400,hyperfair,0,a,1000.43,a,0,0
P5,3,64,34,DST_042_F_ANG.png,900,100,hyperfair,0,a,800.66,a,0,0
P5,3,65,141,DST_079_M_HPY.png,800,200,hyperfair,0,a,1344.11,a,1,1
P5,3,66,12,DST_040_F_ANG.png,400,600,unfair,0,a,1322.63,a,0,0
P5,3,67,101,DST_157_F_HPY.png,700,300,hyperfair,0,a,5172.36,a,1,0
P5,3,68,112,DST_116_M_HPY.png,200,800,unfair,0,a,964.37,a,1,1
P5,3,69,53,DST_103_M_ANG.png,500,500,fair,0,a,973.51,a,0,1
P5,3,70,134,DST_064_M_HPY.png,600,400,hyperfair,0,a,1174.47,a,1,1
P5,3,71,81,DST_135_F_HPY.png,300,700,unfair,0,a,934.92,a,1,0
P5,3,72,62,DST_051_M_ANG.png,600,400,hyperfair,0,a,816.6,a,0,1
P5,3,73,114,DST_098_M_HPY.png,200,800,unfair,0,a,5430.74,a,1,1
P5,3,74,69,DST_074_M_ANG.png,800,200,hyperfair,0,a,2668.27,a,0,1
P5,3,75,91,DST_025_F_HPY.png,500,500,fair,0,a,431.85,a,1,0
P5,3,76,43,DST_047_M_ANG.png,300,700,unfair,0,a,300.98,a,0,1
P5,3,77,100,DST_065_F_HPY.png,700,300,hyperfair,0,a,944.25,a,1,0
P5,3,78,90,DST_164_F_HPY.png,500,500,fair,0,a,763.32,a,1,0
P5,3,79,45,DST_099_M_ANG.png,300,700,unfair,0,a,1115.05,a,0,1
P5,3,80,128,DST_022_M_HPY.png,500,500,fair,0,a,654.17,a,1,1
P5,3,81,42,DST_026_M_ANG.png,200,800,unfair,0,a,1234.99,a,0,1
P5,3,82,132,DST_122_M_HPY.png,500,500,fair,0,a,897.02,a,1,1
P5,3,83,7,DST_009_F_ANG.png,300,700,unfair,0,a,732.05,a,0,0
P5,3,84,10,DST_133_F_ANG.png,400,600,unfair,0,a,974.62,a,0,0
P5,3,85,35,DST_173_F_ANG.png,900,100,hyperfair,0,a,2550.35,a,0,0
P5,3,86,16,DST_131_F_ANG.png,500,500,fair,0,a,1296.02,a,0,0
P5,3,87,111,DST_097_M_HPY.png,100,900,unfair,0,a,2185.55,a,1,1
P5,3,88,66,DST_114_M_ANG.png,700,300,hyperfair,0,a,3059.66,a,0,1
P5,3,89,102,DST_177_F_HPY.png,700,300,hyperfair,0,a,2187.65,a,1,0
P5,3,90,116,DST_010_M_HPY.png,300,700,unfair,0,a,660.28,a,1,1
P5,3,91,87,DST_046_F_HPY.png,500,500,fair,0,a,843.07,a,1,0
P5,3,92,61,DST_010_M_ANG.png,600,400,hyperfair,0,a,904.45,a,0,1
P5,3,93,77,DST_017_F_HPY.png,200,800,unfair,0,a,770.34,a,1,0
P5,3,94,58,DST_091_M_ANG.png,500,500,fair,0,a,789.28,a,0,1
P5,3,95,3,DST_138_F_ANG.png,100,900,unfair,0,a,899.51,a,0,0
P5,3,96,74,DST_036_F_HPY.png,100,900,unfair,0,a,900.76,a,1,0
P5,3,97,94,DST_159_F_HPY.png,500,500,fair,0,a,1373.53,a,1,0
P5,3,98,144,DST_091_M_HPY.png,900,100,hyperfair,0,a,1109.41,a,1,1
P5,3,99,33,DST_002_F_ANG.png,800,200,hyperfair,0,a,679.22,a,0,0
P5,3,100,13,DST_167_F_ANG.png,500,500,fair,0,a,843.61,a,0,0
P5,3,101,106,DST_027_F_HPY.png,900,100,hyperfair,0,a,1481.48,a,1,0
P5,3,102,75,DST_142_F_HPY.png,100,900,unfair,0,a,1039.15,a,1,0
P5,3,103,29,DST_183_F_ANG.png,700,300,hyperfair,0,a,1139.7,a,0,0
P5,3,104,31,DST_171_F_ANG.png,800,200,hyperfair,0,a,1143.6,a,0,0
P5,3,105,1,DST_046_F_ANG.png,100,900,unfair,0,a,730.57,a,0,0
P5,3,106,138,DST_118_M_HPY.png,700,300,hyperfair,0,a,1757.48,a,1,1
P5,3,107,76,DST_183_F_HPY.png,200,800,unfair,0,a,2356.99,a,1,0
P5,3,108,136,DST_093_M_HPY.png,700,300,hyperfair,0,a,631.35,a,1,1
P5,3,109,14,DST_005_F_ANG.png,500,500,fair,0,a,780.87,a,0,0
P5,3,110,5,DST_124_F_ANG.png,200,800,unfair,0,a,2605.74,a,0,0
P5,3,111,127,DST_115_M_HPY.png,500,500,fair,0,a,723.44,a,1,1
P5,3,112,125,DST_096_M_HPY.png,500,500,fair,0,a,651.87,a,1,1
P5,3,113,32,DST_182_F_ANG.png,800,200,hyperfair,0,a,832.58,a,0,0
P5,3,114,51,DST_090_M_ANG.png,500,500,fair,0,a,766.45,a,0,1
P5,3,115,120,DST_084_M_HPY.png,400,600,unfair,0,a,2077.82,a,1,1
P5,3,116,133,DST_030_M_HPY.png,600,400,hyperfair,0,a,795.27,a,1,1
P5,3,117,92,DST_133_F_HPY.png,500,500,fair,0,a,552.7,a,1,0
P5,3,118,24,DST_147_F_ANG.png,500,500,fair,0,a,647.65,a,0,0
P5,3,119,78,DST_145_F_HPY.png,200,800,unfair,0,a,632.84,a,1,0
P5,3,120,121,DST_012_M_HPY.png,500,500,fair,0,a,671,a,1,1
P5,3,121,4,DST_024_F_ANG.png,200,800,unfair,0,a,739.68,a,0,0
P5,3,122,22,DST_186_F_ANG.png,500,500,fair,0,a,644.44,a,0,0
P5,3,123,50,DST_089_M_ANG.png,500,500,fair,0,a,797.99,a,0,1
P5,3,124,97,DST_173_F_HPY.png,600,400,hyperfair,0,a,4765.36,a,1,0
P5,3,125,54,DST_022_M_ANG.png,500,500,fair,0,a,732.63,a,0,1
P5,3,126,68,DST_064_M_ANG.png,800,200,hyperfair,0,a,2528.42,a,0,1
P5,3,127,124,DST_013_M_HPY.png,500,500,fair,0,a,954.57,a,1,1
P5,3,128,73,DST_029_F_HPY.png,100,900,unfair,0,a,981.13,a,1,0
P5,3,129,83,DST_124_F_HPY.png,400,600,unfair,0,a,1052.3,a,1,0
P5,3,130,70,DST_115_M_ANG.png,900,100,hyperfair,0,a,1059.01,a,0,1
P5,3,131,118,DST_048_M_HPY.png,400,600,unfair,0,a,792.76,a,1,1
P5,3,132,47,DST_030_M_ANG.png,400,600,unfair,0,a,939.49,a,0,1
P5,3,133,6,DST_130_F_ANG.png,200,800,unfair,0,a,2738.58,a,0,0
P5,3,134,30,DST_036_F_ANG.png,700,300,hyperfair,0,a,821.32,a,0,0
P5,3,135,15,DST_123_F_ANG.png,500,500,fair,0,a,657.66,a,0,0
P5,3,136,37,DST_071_M_ANG.png,100,900,unfair,0,a,632.19,a,0,1
P5,3,137,98,DST_174_F_HPY.png,600,400,hyperfair,0,a,989.26,a,1,0
P5,3,138,46,DST_048_M_ANG.png,400,600,unfair,0,a,2181.75,a,0,1
P5,3,139,130,DST_056_M_HPY.png,500,500,fair,0,a,846.17,a,1,1
P5,3,140,2,DST_017_F_ANG.png,100,900,unfair,0,a,811.32,a,0,0
P5,3,141,123,DST_077_M_HPY.png,500,500,fair,0,a,681.57,a,1,1
P5,3,142,110,DST_086_M_HPY.png,100,900,unfair,0,a,927.83,a,1,1
P5,3,143,93,DST_146_F_HPY.png,500,500,fair,0,a,729.31,a,1,0
P5,3,144,131,DST_088_M_HPY.png,500,500,fair,0,a,655.12,a,1,1
P6,3,1,61,DST_010_M_ANG.png,600,400,hyperfair,0,a,1194.79,a,0,1
P6,3,2,10,DST_133_F_ANG.png,400,600,unfair,0,a,522.16,a,0,0
P6,3,3,133,DST_030_M_HPY.png,600,400,hyperfair,0,a,692.39,a,1,1
P6,3,4,77,DST_017_F_HPY.png,200,800,unfair,0,a,568.18,a,1,0
P6,3,5,141,DST_079_M_HPY.png,800,200,hyperfair,0,a,657.55,a,1,1
P6,3,6,81,DST_135_F_HPY.png,300,700,unfair,0,a,631.05,a,1,0
P6,3,7,29,DST_183_F_ANG.png,700,300,hyperfair,0,a,605.33,a,0,0
P6,3,8,69,DST_074_M_ANG.png,800,200,hyperfair,0,a,420.47,a,0,1
P6,3,9,52,DST_097_M_ANG.png,500,500,fair,0,a,434.38,a,0,1
P6,3,10,86,DST_040_F_HPY.png,500,500,fair,0,a,534.79,a,1,0
P6,3,11,132,DST_122_M_HPY.png,500,500,fair,0,a,725.16,a,1,1
P6,3,12,93,DST_146_F_HPY.png,500,500,fair,0,a,906.14,a,1,0
P6,3,13,70,DST_115_M_ANG.png,900,100,hyperfair,0,a,596.77,a,0,1
P6,3,14,62,DST_051_M_ANG.png,600,400,hyperfair,0,a,524.07,a,0,1
P6,3,15,137,DST_089_M_HPY.png,700,300,hyperfair,0,a,469.04,a,1,1
P6,3,16,114,DST_098_M_HPY.png,200,800,unfair,0,a,866.65,a,1,1
P6,3,17,78,DST_145_F_HPY.png,200,800,unfair,0,a,739.98,a,1,0
P6,3,18,46,DST_048_M_ANG.png,400,600,unfair,0,a,645.99,a,0,1
P6,3,19,87,DST_046_F_HPY.png,500,500,fair,0,a,395.3,a,1,0
P6,3,20,13,DST_167_F_ANG.png,500,500,fair,0,a,575.62,a,0,0
P6,3,21,110,DST_086_M_HPY.png,100,900,unfair,0,j,2645.57,a,1,1
P6,3,22,63,DST_081_M_ANG.png,600,400,hyperfair,0,a,555.6,a,0,1
P6,3,23,106,DST_027_F_HPY.png,900,100,hyperfair,0,a,691.16,a,1,0
P6,3,24,122,DST_047_M_HPY.png,500,500,fair,0,a,841.06,a,1,1
P6,3,25,47,DST_030_M_ANG.png,400,600,unfair,0,a,516.52,a,0,1
P6,3,26,129,DST_031_M_HPY.png,500,500,fair,0,a,431.72,a,1,1
P6,3,27,88,DST_131_F_HPY.png,500,500,fair,0,a,626.93,a,1,0
P6,3,28,17,DST_145_F_ANG.png,500,500,fair,0,a,750.94,a,0,0
P6,3,29,31,DST_171_F_ANG.png,800,200,hyperfair,0,a,511.21,a,0,0
P6,3,30,79,DST_149_F_HPY.png,300,700,unfair,0,a,491.68,a,1,0
P6,3,31,134,DST_064_M_HPY.png,600,400,hyperfair,0,a,599.26,a,1,1
P6,3,32,112,DST_116_M_HPY.png,200,800,unfair,0,a,526.64,a,1,1
P6,3,33,28,DST_161_F_ANG.png,700,300,hyperfair,0,a,504.23,a,0,0
P6,3,34,18,DST_023_F_ANG.png,500,500,fair,0,a,565.08,a,0,0
P6,3,35,82,DST_009_F_HPY.png,400,600,unfair,0,a,605.12,a,1,0
P6,3,36,32,DST_182_F_ANG.png,800,200,hyperfair,0,a,564.37,a,0,0
P6,3,37,59,DST_098_M_ANG.png,500,500,fair,0,a,592.22,a,0,1
P6,3,38,108,DST_138_F_HPY.png,900,100,hyperfair,0,a,504.37,a,1,0
P6,3,39,50,DST_089_M_ANG.png,500,500,fair,0,a,500.42,a,0,1
P6,3,40,142,DST_081_M_HPY.png,900,100,hyperfair,0,a,641,a,1,1
P6,3,41,55,DST_096_M_ANG.png,500,500,fair,0,a,439.09,a,0,1
P6,3,42,33,DST_002_F_ANG.png,800,200,hyperfair,0,a,533.75,a,0,0
P6,3,43,89,DST_137_F_HPY.png,500,500,fair,0,a,398.51,a,1,0
P6,3,44,74,DST_036_F_HPY.png,100,900,unfair,0,a,1277.65,a,1,0
P6,3,45,109,DST_026_M_HPY.png,100,900,unfair,0,a,687.5,a,1,1
P6,3,46,41,DST_016_M_ANG.png,200,800,unfair,0,a,466.25,a,0,1
P6,3,47,111,DST_097_M_HPY.png,100,900,unfair,0,a,607.55,a,1,1
P6,3,48,131,DST_088_M_HPY.png,500,500,fair,0,a,518.89,a,1,1
P6,3,49,135,DST_071_M_HPY.png,600,400,hyperfair,0,a,528.61,a,1,1
P6,3,50,25,DST_029_F_ANG.png,600,400,hyperfair,0,a,463.77,a,0,0
P6,3,51,120,DST_084_M_HPY.png,400,600,unfair,0,a,603.08,a,1,1
P6,3,52,103,DST_126_F_HPY.png,800,200,hyperfair,0,a,690.88,a,1,0
P6,3,53,4,DST_024_F_ANG.png,200,800,unfair,0,a,373.47,a,0,0
P6,3,54,15,DST_123_F_ANG.png,500,500,fair,0,a,535.94,a,0,0
P6,3,55,75,DST_142_F_HPY.png,100,900,unfair,0,a,384.35,a,1,0
P6,3,56,128,DST_022_M_HPY.png,500,500,fair,0,a,482.76,a,1,1
P6,3,57,91,DST_025_F_HPY.png,500,500,fair,0,a,563.08,a,1,0
P6,3,58,39,DST_031_M_ANG.png,100,900,unfair,0,a,586.13,a,0,1
P6,3,59,7,DST_009_F_ANG.png,300,700,unfair,0,a,627.39,a,0,0
P6,3,60,113,DST_016_M_HPY.png,200,800,unfair,0,a,953.4,a,1,1
P6,3,61,44,DST_079_M_ANG.png,300,700,unfair,0,a,530.77,a,0,1
P6,3,62,67,DST_020_M_ANG.png,800,200,hyperfair,0,a,2077.23,a,0,1
P6,3,63,6,DST_130_F_ANG.png,200,800,unfair,0,a,1064.23,a,0,0
P6,3,64,65,DST_110_M_ANG.png,700,300,hyperfair,0,a,572.45,a,0,1
P6,3,65,37,DST_071_M_ANG.png,100,900,unfair,0,a,2948.7,a,0,1
P6,3,66,38,DST_043_M_ANG.png,100,900,unfair,0,a,1122.23,a,0,1
P6,3,67,98,DST_174_F_HPY.png,600,400,hyperfair,0,a,929.74,a,1,0
P6,3,68,19,DST_025_F_ANG.png,500,500,fair,0,a,1287.99,a,0,0
P6,3,69,143,DST_083_M_HPY.png,900,100,hyperfair,0,a,595.02,a,1,1
P6,3,70,1,DST_046_F_ANG.png,100,900,unfair,0,a,843.66,a,0,0
P6,3,71,107,DST_130_F_HPY.png,900,100,hyperfair,0,a,821.54,a,1,0
P6,3,72,80,DST_128_F_HPY.png,300,700,unfair,0,a,627.85,a,1,0
P6,3,73,100,DST_065_F_HPY.png,700,300,hyperfair,0,a,789.5,a,1,0
P6,3,74,34,DST_042_F_ANG.png,900,100,hyperfair,0,a,1283.84,a,0,0
P6,3,75,21,DST_174_F_ANG.png,500,500,fair,0,a,737.08,a,0,0
P6,3,76,9,DST_129_F_ANG.png,300,700,unfair,0,a,403.55,a,0,0
P6,3,77,58,DST_091_M_ANG.png,500,500,fair,0,a,146.02,a,0,1
P6,3,78,60,DST_118_M_ANG.png,500,500,fair,0,a,464.87,a,0,1
P6,3,79,138,DST_118_M_HPY.png,700,300,hyperfair,0,a,698.57,a,1,1
P6,3,80,124,DST_013_M_HPY.png,500,500,fair,0,a,254.41,a,1,1
P6,3,81,115,DST_103_M_HPY.png,300,700,unfair,0,a,467.74,a,1,1
P6,3,82,90,DST_164_F_HPY.png,500,500,fair,0,a,578,a,1,0
P6,3,83,96,DST_162_F_HPY.png,500,500,fair,0,a,491.79,a,1,0
P6,3,84,102,DST_177_F_HPY.png,700,300,hyperfair,0,a,390.02,a,1,0
P6,3,85,14,DST_005_F_ANG.png,500,500,fair,0,a,486.09,a,0,0
P6,3,86,97,DST_173_F_HPY.png,600,400,hyperfair,0,a,530.59,a,1,0
P6,3,87,45,DST_099_M_ANG.png,300,700,unfair,0,a,2139.08,a,0,1
P6,3,88,116,DST_010_M_HPY.png,300,700,unfair,0,a,502.73,a,1,1
P6,3,89,127,DST_115_M_HPY.png,500,500,fair,0,a,352.87,a,1,1
P6,3,90,11,DST_137_F_ANG.png,400,600,unfair,0,a,593.44,a,0,0
P6,3,91,40,DST_119_M_ANG.png,200,800,unfair,0,a,423.76,a,0,1
P6,3,92,22,DST_186_F_ANG.png,500,500,fair,0,a,548.49,a,0,0
P6,3,93,24,DST_147_F_ANG.png,500,500,fair,0,a,448.05,a,0,0
P6,3,94,99,DST_186_F_HPY.png,600,400,hyperfair,0,a,619.26,a,1,0
P6,3,95,5,DST_124_F_ANG.png,200,800,unfair,0,a,569.6,a,0,0
P6,3,96,105,DST_185_F_HPY.png,800,200,hyperfair,0,a,658.77,a,1,0
P6,3,97,94,DST_159_F_HPY.png,500,500,fair,0,a,597.67,a,1,0
P6,3,98,53,DST_103_M_ANG.png,500,500,fair,0,a,464.39,a,0,1
P6,3,99,126,DST_114_M_HPY.png,500,500,fair,0,a,529.4,a,1,1
P6,3,100,12,DST_040_F_ANG.png,400,600,unfair,0,a,586.31,a,0,0
P6,3,101,92,DST_133_F_HPY.png,500,500,fair,0,a,944.6,a,1,0
P6,3,102,71,DST_012_M_ANG.png,900,100,hyperfair,0,a,393.7,a,0,1
P6,3,103,35,DST_173_F_ANG.png,900,100,hyperfair,0,a,508.15,a,0,0
P6,3,104,26,DST_135_F_ANG.png,600,400,hyperfair,0,a,406.55,a,0,0
P6,3,105,51,DST_090_M_ANG.png,500,500,fair,0,a,644.49,a,0,1
P6,3,106,16,DST_131_F_ANG.png,500,500,fair,0,a,621.05,a,0,0
P6,3,107,68,DST_064_M_ANG.png,800,200,hyperfair,0,a,335.85,a,0,1
P6,3,108,76,DST_183_F_HPY.png,200,800,unfair,0,a,465.48,a,1,0
P6,3,109,85,DST_002_F_HPY.png,500,500,fair,0,a,335.43,a,1,0
P6,3,110,144,DST_091_M_HPY.png,900,100,hyperfair,0,a,751.21,a,1,1
P6,3,111,121,DST_012_M_HPY.png,500,500,fair,0,a,545.43,a,1,1
P6,3,112,130,DST_056_M_HPY.png,500,500,fair,0,a,524.77,a,1,1
P6,3,113,48,DST_056_M_ANG.png,400,600,unfair,0,a,532.78,a,0,1
P6,3,114,54,DST_022_M_ANG.png,500,500,fair,0,a,493.88,a,0,1
P6,3,115,56,DST_120_M_ANG.png,500,500,fair,0,a,506.96,a,0,1
P6,3,116,125,DST_096_M_HPY.png,500,500,fair,0,a,522.75,a,1,1
P6,3,117,20,DST_164_F_ANG.png,500,500,fair,0,a,376.04,a,0,0
P6,3,118,118,DST_048_M_HPY.png,400,600,unfair,0,a,472.47,a,1,1
P6,3,119,43,DST_047_M_ANG.png,300,700,unfair,0,a,499.29,a,0,1
P6,3,120,23,DST_032_F_ANG.png,500,500,fair,0,a,508.4,a,0,0
P6,3,121,66,DST_114_M_ANG.png,700,300,hyperfair,0,a,581.2,a,0,1
P6,3,122,2,DST_017_F_ANG.png,100,900,unfair,0,a,542,a,0,0
P6,3,123,101,DST_157_F_HPY.png,700,300,hyperfair,0,a,438.14,a,1,0
P6,3,124,136,DST_093_M_HPY.png,700,300,hyperfair,0,a,679.74,a,1,1
P6,3,125,3,DST_138_F_ANG.png,100,900,unfair,0,a,792.73,a,0,0
P6,3,126,42,DST_026_M_ANG.png,200,800,unfair,0,a,904.84,a,0,1
P6,3,127,49,DST_068_M_ANG.png,500,500,fair,0,a,2689.4,a,0,1
P6,3,128,140,DST_018_M_HPY.png,800,200,hyperfair,0,a,419.83,a,1,1
P6,3,129,119,DST_074_M_HPY.png,400,600,unfair,0,a,432.86,a,1,1
P6,3,130,117,DST_015_M_HPY.png,300,700,unfair,0,a,495,a,1,1
P6,3,131,73,DST_029_F_HPY.png,100,900,unfair,0,a,536.58,a,1,0
P6,3,132,139,DST_119_M_HPY.png,800,200,hyperfair,0,a,690.17,a,1,1
P6,3,133,57,DST_088_M_ANG.png,500,500,fair,0,a,629.78,a,0,1
P6,3,134,27,DST_157_F_ANG.png,600,400,hyperfair,0,a,619.45,a,0,0
P6,3,135,123,DST_077_M_HPY.png,500,500,fair,0,a,546.67,a,1,1
P6,3,136,36,DST_004_F_ANG.png,900,100,hyperfair,0,a,682.75,a,0,0
P6,3,137,104,DST_182_F_HPY.png,800,200,hyperfair,0,a,461.82,a,1,0
P6,3,138,30,DST_036_F_ANG.png,700,300,hyperfair,0,a,537.92,a,0,0
P6,3,139,83,DST_124_F_HPY.png,400,600,unfair,0,a,419.18,a,1,0
P6,3,140,84,DST_129_F_HPY.png,400,600,unfair,0,a,325.94,a,1,0
P6,3,141,8,DST_149_F_ANG.png,300,700,unfair,0,a,276.45,a,0,0
P6,3,142,95,DST_161_F_HPY.png,500,500,fair,0,a,663.34,a,1,0
P6,3,143,72,DST_013_M_ANG.png,900,100,hyperfair,0,a,411.64,a,0,1
P6,3,144,64,DST_106_M_ANG.png,700,300,hyperfair,0,a,475.68,a,0,1
P7,3,1,39,DST_031_M_ANG.png,100,900,unfair,0,j,3183.54,a,0,1
P7,3,2,70,DST_115_M_ANG.png,900,100,hyperfair,0,a,864.71,a,0,1
P7,3,3,48,DST_056_M_ANG.png,400,600,unfair,0,a,4715.47,a,0,1
P7,3,4,137,DST_089_M_HPY.png,700,300,hyperfair,0,a,2303.94,a,1,1
P7,3,5,12,DST_040_F_ANG.png,400,600,unfair,0,a,1105.8,a,0,0
P7,3,6,28,DST_161_F_ANG.png,700,300,hyperfair,0,a,901.05,a,0,0
P7,3,7,97,DST_173_F_HPY.png,600,400,hyperfair,0,a,1007.94,a,1,0
P7,3,8,119,DST_074_M_HPY.png,400,600,unfair,0,a,934.13,a,1,1
P7,3,9,95,DST_161_F_HPY.png,500,500,fair,0,a,768.21,a,1,0
P7,3,10,73,DST_029_F_HPY.png,100,900,unfair,0,j,2737.54,a,1,0
P7,3,11,133,DST_030_M_HPY.png,600,400,hyperfair,0,a,3568,a,1,1
P7,3,12,87,DST_046_F_HPY.png,500,500,fair,0,a,834.94,a,1,0
P7,3,13,1,DST_046_F_ANG.png,100,900,unfair,0,j,1887.16,a,0,0
P7,3,14,89,DST_137_F_HPY.png,500,500,fair,0,a,660.05,a,1,0
P7,3,15,106,DST_027_F_HPY.png,900,100,hyperfair,0,a,886.24,a,1,0
P7,3,16,113,DST_016_M_HPY.png,200,800,unfair,0,j,1588.21,a,1,1
P7,3,17,4,DST_024_F_ANG.png,200,800,unfair,0,j,2886.33,a,0,0
P7,3,18,108,DST_138_F_HPY.png,900,100,hyperfair,0,a,914.49,a,1,0
P7,3,19,141,DST_079_M_HPY.png,800,200,hyperfair,0,a,5069.06,a,1,1
P7,3,20,122,DST_047_M_HPY.png,500,500,fair,0,a,2530.08,a,1,1
P7,3,21,69,DST_074_M_ANG.png,800,200,hyperfair,0,a,3339.09,a,0,1
P7,3,22,139,DST_119_M_HPY.png,800,200,hyperfair,0,a,743.54,a,1,1
P7,3,23,100,DST_065_F_HPY.png,700,300,hyperfair,0,a,1333.75,a,1,0
P7,3,24,128,DST_022_M_HPY.png,500,500,fair,0,a,738.26,a,1,1
P7,3,25,3,DST_138_F_ANG.png,100,900,unfair,0,j,3634.26,a,0,0
P7,3,26,94,DST_159_F_HPY.png,500,500,fair,0,a,720.9,a,1,0
P7,3,27,24,DST_147_F_ANG.png,500,500,fair,0,a,2038.79,a,0,0
P7,3,28,75,DST_142_F_HPY.png,100,900,unfair,0,j,2675.43,a,1,0
P7,3,29,142,DST_081_M_HPY.png,900,100,hyperfair,0,a,1318.68,a,1,1
P7,3,30,34,DST_042_F_ANG.png,900,100,hyperfair,0,a,1061.89,a,0,0
P7,3,31,22,DST_186_F_ANG.png,500,500,fair,0,a,872.44,a,0,0
P7,3,32,44,DST_079_M_ANG.png,300,700,unfair,0,j,4102.43,a,0,1
P7,3,33,64,DST_106_M_ANG.png,700,300,hyperfair,0,a,1762.64,a,0,1
P7,3,34,130,DST_056_M_HPY.png,500,500,fair,0,a,650.98,a,1,1
P7,3,35,131,DST_088_M_HPY.png,500,500,fair,0,a,723.81,a,1,1
P7,3,36,120,DST_084_M_HPY.png,400,600,unfair,0,j,1780.91,a,1,1
P7,3,37,46,DST_048_M_ANG.png,400,600,unfair,0,a,5987,a,0,1
P7,3,38,11,DST_137_F_ANG.png,400,600,unfair,0,a,982.47,a,0,0
P7,3,39,92,DST_133_F_HPY.png,500,500,fair,0,a,763.94,a,1,0
P7,3,40,78,DST_145_F_HPY.png,200,800,unfair,0,j,4794.96,a,1,0
P7,3,41,85,DST_002_F_HPY.png,500,500,fair,0,a,1737.89,a,1,0
P7,3,42,55,DST_096_M_ANG.png,500,500,fair,0,a,630.88,a,0,1
P7,3,43,124,DST_013_M_HPY.png,500,500,fair,0,a,801.19,a,1,1
P7,3,44,116,DST_010_M_HPY.png,300,700,unfair,0,j,3487.36,a,1,1
P7,3,45,98,DST_174_F_HPY.png,600,400,hyperfair,0,a,8546.73,a,1,0
P7,3,46,112,DST_116_M_HPY.png,200,800,unfair,0,j,6573.16,a,1,1
P7,3,47,68,DST_064_M_ANG.png,800,200,hyperfair,0,a,1732.38,a,0,1
P7,3,48,45,DST_099_M_ANG.png,300,700,unfair,0,j,1423.98,a,0,1
P7,3,49,8,DST_149_F_ANG.png,300,700,unfair,0,j,1658.67,a,0,0
P7,3,50,56,DST_120_M_ANG.png,500,500,fair,0,a,757.63,a,0,1
P7,3,51,43,DST_047_M_ANG.png,300,700,unfair,0,a,5638.56,a,0,1
P7,3,52,105,DST_185_F_HPY.png,800,200,hyperfair,0,a,899.63,a,1,0
P7,3,53,138,DST_118_M_HPY.png,700,300,hyperfair,0,a,3422.41,a,1,1
P7,3,54,143,DST_083_M_HPY.png,900,100,hyperfair,0,a,1236.61,a,1,1
P7,3,55,79,DST_149_F_HPY.png,300,700,unfair,0,j,1379.52,a,1,0
P7,3,56,67,DST_020_M_ANG.png,800,200,hyperfair,0,a,2955.75,a,0,1
P7,3,57,134,DST_064_M_HPY.png,600,400,hyperfair,0,a,899.62,a,1,1
P7,3,58,115,DST_103_M_HPY.png,300,700,unfair,0,j,4737.19,a,1,1
P7,3,59,62,DST_051_M_ANG.png,600,400,hyperfair,0,a,2225.36,a,0,1
P7,3,60,81,DST_135_F_HPY.png,300,700,unfair,0,a,1094.57,a,1,0
P7,3,61,90,DST_164_F_HPY.png,500,500,fair,0,a,664.18,a,1,0
P7,3,62,20,DST_164_F_ANG.png,500,500,fair,0,a,673.23,a,0,0
P7,3,63,14,DST_005_F_ANG.png,500,500,fair,0,a,887.55,a,0,0
P7,3,64,52,DST_097_M_ANG.png,500,500,fair,0,a,646.86,a,0,1
P7,3,65,23,DST_032_F_ANG.png,500,500,fair,0,a,640.2,a,0,0
P7,3,66,7,DST_009_F_ANG.png,300,700,unfair,0,j,5349.01,a,0,0
P7,3,67,60,DST_118_M_ANG.png,500,500,fair,0,a,651.76,a,0,1
P7,3,68,10,DST_133_F_ANG.png,400,600,unfair,0,a,9778.04,a,0,0
P7,3,69,6,DST_130_F_ANG.png,200,800,unfair,0,j,1272.9,a,0,0
P7,3,70,2,DST_017_F_ANG.png,100,900,unfair,0,j,1126.47,a,0,0
P7,3,71,71,DST_012_M_ANG.png,900,100,hyperfair,0,a,887.92,a,0,1
P7,3,72,16,DST_131_F_ANG.png,500,500,fair,0,a,772.01,a,0,0
P7,3,73,40,DST_119_M_ANG.png,200,800,unfair,0,j,2682.85,a,0,1
P7,3,74,29,DST_183_F_ANG.png,700,300,hyperfair,0,a,893.14,a,0,0
P7,3,75,144,DST_091_M_HPY.png,900,100,hyperfair,0,a,1157.86,a,1,1
P7,3,76,127,DST_115_M_HPY.png,500,500,fair,0,a,612.2,a,1,1
P7,3,77,76,DST_183_F_HPY.png,200,800,unfair,0,j,1034.74,a,1,0
P7,3,78,42,DST_026_M_ANG.png,200,800,unfair,0,j,1778.92,a,0,1
P7,3,79,99,DST_186_F_HPY.png,600,400,hyperfair,0,a,824.73,a,1,0
P7,3,80,136,DST_093_M_HPY.png,700,300,hyperfair,0,a,2373.21,a,1,1
P7,3,81,32,DST_182_F_ANG.png,800,200,hyperfair,0,a,753.15,a,0,0
P7,3,82,57,DST_088_M_ANG.png,500,500,fair,0,a,772.74,a,0,1
P7,3,83,25,DST_029_F_ANG.png,600,400,hyperfair,0,a,899.98,a,0,0
P7,3,84,102,DST_177_F_HPY.png,700,300,hyperfair,0,a,2736.02,a,1,0
P7,3,85,61,DST_010_M_ANG.png,600,400,hyperfair,0,a,847.88,a,0,1
P7,3,86,83,DST_124_F_HPY.png,400,600,unfair,0,a,3901.51,a,1,0
P7,3,87,47,DST_030_M_ANG.png,400,600,unfair,0,a,1972.83,a,0,1
P7,3,88,33,DST_002_F_ANG.png,800,200,hyperfair,0,a,738.87,a,0,0
P7,3,89,109,DST_026_M_HPY.png,100,900,unfair,0,j,1302.26,a,1,1
P7,3,90,13,DST_167_F_ANG.png,500,500,fair,0,a,689.16,a,0,0
P7,3,91,27,DST_157_F_ANG.png,600,400,hyperfair,0,a,1362.96,a,0,0
P7,3,92,129,DST_031_M_HPY.png,500,500,fair,0,a,733.91,a,1,1
P7,3,93,21,DST_174_F_ANG.png,500,500,fair,0,a,2161.9,a,0,0
P7,3,94,110,DST_086_M_HPY.png,100,900,unfair,0,j,3035.22,a,1,1
P7,3,95,38,DST_043_M_ANG.png,100,900,unfair,0,j,1541.88,a,0,1
P7,3,96,86,DST_040_F_HPY.png,500,500,fair,0,a,2886.25,a,1,0
P7,3,97,17,DST_145_F_ANG.png,500,500,fair,0,a,1221.21,a,0,0
P7,3,98,140,DST_018_M_HPY.png,800,200,hyperfair,0,a,738.45,a,1,1
P7,3,99,126,DST_114_M_HPY.png,500,500,fair,0,a,674.94,a,1,1
P7,3,100,36,DST_004_F_ANG.png,900,100,hyperfair,0,a,903.25,a,0,0
P7,3,101,103,DST_126_F_HPY.png,800,200,hyperfair,0,a,1490.73,a,1,0
P7,3,102,30,DST_036_F_ANG.png,700,300,hyperfair,0,a,2148.55,a,0,0
P7,3,103,51,DST_090_M_ANG.png,500,500,fair,0,a,4204.48,a,0,1
P7,3,104,58,DST_091_M_ANG.png,500,500,fair,0,a,1015.71,a,0,1
P7,3,105,18,DST_023_F_ANG.png,500,500,fair,0,a,676.02,a,0,0
P7,3,106,132,DST_122_M_HPY.png,500,500,fair,0,a,617.99,a,1,1
P7,3,107,135,DST_071_M_HPY.png,600,400,hyperfair,0,a,685.67,a,1,1
P7,3,108,101,DST_157_F_HPY.png,700,300,hyperfair,0,a,2097.81,a,1,0
P7,3,109,9,DST_129_F_ANG.png,300,700,unfair,0,j,5147.91,a,0,0
P7,3,110,74,DST_036_F_HPY.png,100,900,unfair,0,j,2717.71,a,1,0
P7,3,111,53,DST_103_M_ANG.png,500,500,fair,0,a,1196.87,a,0,1
P7,3,112,84,DST_129_F_HPY.png,400,600,unfair,0,a,4842.68,a,1,0
P7,3,113,93,DST_146_F_HPY.png,500,500,fair,0,a,694.33,a,1,0
P7,3,114,125,DST_096_M_HPY.png,500,500,fair,0,a,813.13,a,1,1
P7,3,115,88,DST_131_F_HPY.png,500,500,fair,0,a,3728.4,a,1,0
P7,3,116,104,DST_182_F_HPY.png,800,200,hyperfair,0,a,2777.5,a,1,0
P7,3,117,31,DST_171_F_ANG.png,800,200,hyperfair,0,a,3420.08,a,0,0
P7,3,118,121,DST_012_M_HPY.png,500,500,fair,0,a,737.81,a,1,1
P7,3,119,19,DST_025_F_ANG.png,500,500,fair,0,a,729.26,a,0,0
P7,3,120,37,DST_071_M_ANG.png,100,900,unfair,0,j,3753.41,a,0,1
P7,3,121,66,DST_114_M_ANG.png,700,300,hyperfair,0,a,3967.73,a,0,1
P7,3,122,80,DST_128_F_HPY.png,300,700,unfair,0,a,3113.53,a,1,0
P7,3,123,59,DST_098_M_ANG.png,500,500,fair,0,a,842.47,a,0,1
P7,3,124,65,DST_110_M_ANG.png,700,300,hyperfair,0,a,3351.55,a,0,1
P7,3,125,96,DST_162_F_HPY.png,500,500,fair,0,a,6752.55,a,1,0
P7,3,126,117,DST_015_M_HPY.png,300,700,unfair,0,a,4401.56,a,1,1
P7,3,127,5,DST_124_F_ANG.png,200,800,unfair,0,j,2114.04,a,0,0
P7,3,128,91,DST_025_F_HPY.png,500,500,fair,0,a,1132.93,a,1,0
P7,3,129,26,DST_135_F_ANG.png,600,400,hyperfair,0,a,3644.24,a,0,0
P7,3,130,54,DST_022_M_ANG.png,500,500,fair,0,a,857.32,a,0,1
P7,3,131,41,DST_016_M_ANG.png,200,800,unfair,0,j,3092.76,a,0,1
P7,3,132,123,DST_077_M_HPY.png,500,500,fair,0,a,904.62,a,1,1
P7,3,133,50,DST_089_M_ANG.png,500,500,fair,0,a,664.96,a,0,1
P7,3,134,15,DST_123_F_ANG.png,500,500,fair,0,a,3296.98,a,0,0
P7,3,135,82,DST_009_F_HPY.png,400,600,unfair,0,a,1482.55,a,1,0
P7,3,136,111,DST_097_M_HPY.png,100,900,unfair,0,j,1054.58,a,1,1
P7,3,137,77,DST_017_F_HPY.png,200,800,unfair,0,j,3490.98,a,1,0
P7,3,138,35,DST_173_F_ANG.png,900,100,hyperfair,0,j,1656.36,a,0,0
P7,3,139,72,DST_013_M_ANG.png,900,100,hyperfair,0,a,2040.49,a,0,1
P7,3,140,114,DST_098_M_HPY.png,200,800,unfair,0,j,5334.93,a,1,1
P7,3,141,63,DST_081_M_ANG.png,600,400,hyperfair,0,a,1519.74,a,0,1
P7,3,142,107,DST_130_F_HPY.png,900,100,hyperfair,0,a,1231.9,a,1,0
P7,3,143,118,DST_048_M_HPY.png,400,600,unfair,0,j,2556.4,a,1,1
P7,3,144,49,DST_068_M_ANG.png,500,500,fair,0,a,1446.34,a,0,1
P8,3,1,32,DST_182_F_ANG.png,800,200,hyperfair,0,j,5952.3,a,0,0
P8,3,2,82,DST_009_F_HPY.png,400,600,unfair,0,a,4961.4,a,1,0
P8,3,3,135,DST_071_M_HPY.png,600,400,hyperfair,0,a,1786.65,a,1,1
P8,3,4,15,DST_123_F_ANG.png,500,500,fair,0,a,1745.96,a,0,0
P8,3,5,35,DST_173_F_ANG.png,900,100,hyperfair,0,j,2586.73,a,0,0
P8,3,6,61,DST_010_M_ANG.png,600,400,hyperfair,0,a,1251.46,a,0,1
P8,3,7,34,DST_042_F_ANG.png,900,100,hyperfair,0,j,2383.51,a,0,0
P8,3,8,7,DST_009_F_ANG.png,300,700,unfair,0,j,2385.27,a,0,0
P8,3,9,43,DST_047_M_ANG.png,300,700,unfair,0,j,2933.34,a,0,1
P8,3,10,103,DST_126_F_HPY.png,800,200,hyperfair,0,j,2704.34,a,1,0
P8,3,11,132,DST_122_M_HPY.png,500,500,fair,0,a,787.63,a,1,1
P8,3,12,33,DST_002_F_ANG.png,800,200,hyperfair,0,j,1365.14,a,0,0
P8,3,13,11,DST_137_F_ANG.png,400,600,unfair,0,a,1532.43,a,0,0
P8,3,14,109,DST_026_M_HPY.png,100,900,unfair,0,j,1519.74,a,1,1
P8,3,15,31,DST_171_F_ANG.png,800,200,hyperfair,0,j,3506.03,a,0,0
P8,3,16,144,DST_091_M_HPY.png,900,100,hyperfair,0,j,1621.92,a,1,1
P8,3,17,22,DST_186_F_ANG.png,500,500,fair,0,a,1347.87,a,0,0
P8,3,18,143,DST_083_M_HPY.png,900,100,hyperfair,0,j,1835.83,a,1,1
P8,3,19,100,DST_065_F_HPY.png,700,300,hyperfair,0,j,1681.68,a,1,0
P8,3,20,72,DST_013_M_ANG.png,900,100,hyperfair,0,j,1087,a,0,1
P8,3,21,69,DST_074_M_ANG.png,800,200,hyperfair,0,j,1314.29,a,0,1
P8,3,22,96,DST_162_F_HPY.png,500,500,fair,0,a,717.71,a,1,0
P8,3,23,6,DST_130_F_ANG.png,200,800,unfair,0,j,1231.57,a,0,0
P8,3,24,90,DST_164_F_HPY.png,500,500,fair,0,a,892.21,a,1,0
P8,3,25,128,DST_022_M_HPY.png,500,500,fair,0,a,699.05,a,1,1
P8,3,26,64,DST_106_M_ANG.png,700,300,hyperfair,0,a,3693.09,a,0,1
P8,3,27,13,DST_167_F_ANG.png,500,500,fair,0,a,680.52,a,0,0
P8,3,28,57,DST_088_M_ANG.png,500,500,fair,0,a,768,a,0,1
P8,3,29,74,DST_036_F_HPY.png,100,900,unfair,0,j,1791.39,a,1,0
P8,3,30,44,DST_079_M_ANG.png,300,700,unfair,0,j,2200.14,a,0,1
P8,3,31,24,DST_147_F_ANG.png,500,500,fair,0,a,878.77,a,0,0
P8,3,32,110,DST_086_M_HPY.png,100,900,unfair,0,j,2956.03,a,1,1
P8,3,33,104,DST_182_F_HPY.png,800,200,hyperfair,0,j,1938.31,a,1,0
P8,3,34,130,DST_056_M_HPY.png,500,500,fair,0,a,2117.11,a,1,1
P8,3,35,12,DST_040_F_ANG.png,400,600,unfair,0,j,4333.78,a,0,0
P8,3,36,46,DST_048_M_ANG.png,400,600,unfair,0,j,2357.93,a,0,1
P8,3,37,129,DST_031_M_HPY.png,500,500,fair,0,a,824.16,a,1,1
P8,3,38,134,DST_064_M_HPY.png,600,400,hyperfair,0,a,4901.15,a,1,1
P8,3,39,75,DST_142_F_HPY.png,100,900,unfair,0,j,1249.07,a,1,0
P8,3,40,21,DST_174_F_ANG.png,500,500,fair,0,a,1070.32,a,0,0
P8,3,41,20,DST_164_F_ANG.png,500,500,fair,0,a,742.79,a,0,0
P8,3,42,87,DST_046_F_HPY.png,500,500,fair,0,a,572.06,a,1,0
P8,3,43,142,DST_081_M_HPY.png,900,100,hyperfair,0,j,1523.4,a,1,1
P8,3,44,133,DST_030_M_HPY.png,600,400,hyperfair,0,a,2804.78,a,1,1
P8,3,45,8,DST_149_F_ANG.png,300,700,unfair,0,j,2019.5,a,0,0
P8,3,46,86,DST_040_F_HPY.png,500,500,fair,0,a,865.49,a,1,0
P8,3,47,91,DST_025_F_HPY.png,500,500,fair,0,a,1491.49,a,1,0
P8,3,48,58,DST_091_M_ANG.png,500,500,fair,0,a,2905.07,a,0,1
P8,3,49,78,DST_145_F_HPY.png,200,800,unfair,0,j,3539.51,a,1,0
P8,3,50,125,DST_096_M_HPY.png,500,500,fair,0,a,1189.21,a,1,1
P8,3,51,118,DST_048_M_HPY.png,400,600,unfair,0,a,1825.94,a,1,1
P8,3,52,2,DST_017_F_ANG.png,100,900,unfair,0,j,3593.29,a,0,0
P8,3,53,71,DST_012_M_ANG.png,900,100,hyperfair,0,j,1622.86,a,0,1
P8,3,54,42,DST_026_M_ANG.png,200,800,unfair,0,j,1668.79,a,0,1
P8,3,55,121,DST_012_M_HPY.png,500,500,fair,0,a,705.23,a,1,1
P8,3,56,89,DST_137_F_HPY.png,500,500,fair,0,a,664.16,a,1,0
P8,3,57,62,DST_051_M_ANG.png,600,400,hyperfair,0,a,1771.12,a,0,1
P8,3,58,66,DST_114_M_ANG.png,700,300,hyperfair,0,j,2548.51,a,0,1
P8,3,59,1,DST_046_F_ANG.png,100,900,unfair,0,j,1230.56,a,0,0
P8,3,60,83,DST_124_F_HPY.png,400,600,unfair,0,a,1755.98,a,1,0
P8,3,61,81,DST_135_F_HPY.png,300,700,unfair,0,a,1845.3,a,1,0
P8,3,62,48,DST_056_M_ANG.png,400,600,unfair,0,a,1067.44,a,0,1
P8,3,63,123,DST_077_M_HPY.png,500,500,fair,0,a,1216.69,a,1,1
P8,3,64,39,DST_031_M_ANG.png,100,900,unfair,0,j,1598.15,a,0,1
P8,3,65,84,DST_129_F_HPY.png,400,600,unfair,0,a,1357.4,a,1,0
P8,3,66,49,DST_068_M_ANG.png,500,500,fair,0,a,661.21,a,0,1
P8,3,67,36,DST_004_F_ANG.png,900,100,hyperfair,0,j,2505.6,a,0,0
P8,3,68,51,DST_090_M_ANG.png,500,500,fair,0,a,899.47,a,0,1
P8,3,69,105,DST_185_F_HPY.png,800,200,hyperfair,0,j,2464.04,a,1,0
P8,3,70,138,DST_118_M_HPY.png,700,300,hyperfair,0,a,2714.96,a,1,1
P8,3,71,45,DST_099_M_ANG.png,300,700,unfair,0,j,1916.53,a,0,1
P8,3,72,55,DST_096_M_ANG.png,500,500,fair,0,a,766.06,a,0,1
P8,3,73,50,DST_089_M_ANG.png,500,500,fair,0,a,787.49,a,0,1
P8,3,74,47,DST_030_M_ANG.png,400,600,unfair,0,a,804.66,a,0,1
P8,3,75,68,DST_064_M_ANG.png,800,200,hyperfair,0,j,2035.11,a,0,1
P8,3,76,131,DST_088_M_HPY.png,500,500,fair,0,a,1377,a,1,1
P8,3,77,54,DST_022_M_ANG.png,500,500,fair,0,a,668.19,a,0,1
P8,3,78,41,DST_016_M_ANG.png,200,800,unfair,0,j,3935.39,a,0,1
P8,3,79,17,DST_145_F_ANG.png,500,500,fair,0,a,1824.45,a,0,0
P8,3,80,23,DST_032_F_ANG.png,500,500,fair,0,a,1241.54,a,0,0
P8,3,81,98,DST_174_F_HPY.png,600,400,hyperfair,0,a,1652.32,a,1,0
P8,3,82,10,DST_133_F_ANG.png,400,600,unfair,0,a,1315.05,a,0,0
P8,3,83,93,DST_146_F_HPY.png,500,500,fair,0,a,652.32,a,1,0
P8,3,84,115,DST_103_M_HPY.png,300,700,unfair,0,a,2817.03,a,1,1
P8,3,85,140,DST_018_M_HPY.png,800,200,hyperfair,0,j,6702.42,a,1,1
P8,3,86,60,DST_118_M_ANG.png,500,500,fair,0,a,689.78,a,0,1
P8,3,87,137,DST_089_M_HPY.png,700,300,hyperfair,0,j,3348.74,a,1,1
P8,3,88,67,DST_020_M_ANG.png,800,200,hyperfair,0,j,2575.19,a,0,1
P8,3,89,77,DST_017_F_HPY.png,200,800,unfair,0,j,1717.12,a,1,0
P8,3,90,56,DST_120_M_ANG.png,500,500,fair,0,a,896.13,a,0,1
P8,3,91,29,DST_183_F_ANG.png,700,300,hyperfair,0,j,1562.57,a,0,0
P8,3,92,27,DST_157_F_ANG.png,600,400,hyperfair,0,a,746.26,a,0,0
P8,3,93,38,DST_043_M_ANG.png,100,900,unfair,0,j,3452.74,a,0,1
P8,3,94,113,DST_016_M_HPY.png,200,800,unfair,0,j,3904.82,a,1,1
P8,3,95,97,DST_173_F_HPY.png,600,400,hyperfair,0,a,1140.92,a,1,0
P8,3,96,119,DST_074_M_HPY.png,400,600,unfair,0,a,2659.99,a,1,1
P8,3,97,59,DST_098_M_ANG.png,500,500,fair,0,a,697.91,a,0,1
P8,3,98,28,DST_161_F_ANG.png,700,300,hyperfair,0,j,3276.38,a,0,0
P8,3,99,3,DST_138_F_ANG.png,100,900,unfair,0,j,2023.29,a,0,0
P8,3,100,124,DST_013_M_HPY.png,500,500,fair,0,a,1110.26,a,1,1
P8,3,101,136,DST_093_M_HPY.png,700,300,hyperfair,0,j,5047.61,a,1,1
P8,3,102,112,DST_116_M_HPY.png,200,800,unfair,0,j,3979.76,a,1,1
P8,3,103,116,DST_010_M_HPY.png,300,700,unfair,0,a,2171.63,a,1,1
P8,3,104,14,DST_005_F_ANG.png,500,500,fair,0,a,805.15,a,0,0
P8,3,105,114,DST_098_M_HPY.png,200,800,unfair,0,j,1216.82,a,1,1
P8,3,106,117,DST_015_M_HPY.png,300,700,unfair,0,j,2239.22,a,1,1
P8,3,107,101,DST_157_F_HPY.png,700,300,hyperfair,0,j,2275.74,a,1,0
P8,3,108,108,DST_138_F_HPY.png,900,100,hyperfair,0,j,1320.09,a,1,0
P8,3,109,70,DST_115_M_ANG.png,900,100,hyperfair,0,j,1914.91,a,0,1
P8,3,110,95,DST_161_F_HPY.png,500,500,fair,0,a,719.6,a,1,0
P8,3,111,4,DST_024_F_ANG.png,200,800,unfair,0,j,2014.52,a,0,0
P8,3,112,53,DST_103_M_ANG.png,500,500,fair,0,a,831.59,a,0,1
P8,3,113,26,DST_135_F_ANG.png,600,400,hyperfair,0,a,1228.28,a,0,0
P8,3,114,16,DST_131_F_ANG.png,500,500,fair,0,a,602.73,a,0,0
P8,3,115,99,DST_186_F_HPY.png,600,400,hyperfair,0,a,736.19,a,1,0
P8,3,116,102,DST_177_F_HPY.png,700,300,hyperfair,0,j,2706.45,a,1,0
P8,3,117,107,DST_130_F_HPY.png,900,100,hyperfair,0,j,1026.67,a,1,0
P8,3,118,79,DST_149_F_HPY.png,300,700,unfair,0,a,3113.89,a,1,0
P8,3,119,30,DST_036_F_ANG.png,700,300,hyperfair,0,j,2811.63,a,0,0
P8,3,120,94,DST_159_F_HPY.png,500,500,fair,0,a,698.96,a,1,0
P8,3,121,73,DST_029_F_HPY.png,100,900,unfair,0,j,2765.2,a,1,0
P8,3,122,37,DST_071_M_ANG.png,100,900,unfair,0,j,1759.86,a,0,1
P8,3,123,52,DST_097_M_ANG.png,500,500,fair,0,a,804.62,a,0,1
P8,3,124,88,DST_131_F_HPY.png,500,500,fair,0,a,1097.89,a,1,0
P8,3,125,18,DST_023_F_ANG.png,500,500,fair,0,a,767.41,a,0,0
P8,3,126,106,DST_027_F_HPY.png,900,100,hyperfair,0,j,4541.78,a,1,0
P8,3,127,122,DST_047_M_HPY.png,500,500,fair,0,a,663.58,a,1,1
P8,3,128,111,DST_097_M_HPY.png,100,900,unfair,0,j,1484.45,a,1,1
P8,3,129,76,DST_183_F_HPY.png,200,800,unfair,0,j,2142.67,a,1,0
P8,3,130,139,DST_119_M_HPY.png,800,200,hyperfair,0,j,2327.58,a,1,1
P8,3,131,92,DST_133_F_HPY.png,500,500,fair,0,a,936.07,a,1,0
P8,3,132,85,DST_002_F_HPY.png,500,500,fair,0,a,868.34,a,1,0
P8,3,133,40,DST_119_M_ANG.png,200,800,unfair,0,j,1167.15,a,0,1
P8,3,134,141,DST_079_M_HPY.png,800,200,hyperfair,0,j,782.16,a,1,1
P8,3,135,120,DST_084_M_HPY.png,400,600,unfair,0,a,1485.74,a,1,1
P8,3,136,127,DST_115_M_HPY.png,500,500,fair,0,a,880.53,a,1,1
P8,3,137,19,DST_025_F_ANG.png,500,500,fair,0,a,1327.76,a,0,0
P8,3,138,9,DST_129_F_ANG.png,300,700,unfair,0,j,1544.71,a,0,0
P8,3,139,25,DST_029_F_ANG.png,600,400,hyperfair,0,a,4696.34,a,0,0
P8,3,140,65,DST_110_M_ANG.png,700,300,hyperfair,0,j,3709.3,a,0,1
P8,3,141,126,DST_114_M_HPY.png,500,500,fair,0,a,774.02,a,1,1
P8,3,142,5,DST_124_F_ANG.png,200,800,unfair,0,j,1142.31,a,0,0
P8,3,143,80,DST_128_F_HPY.png,300,700,unfair,0,a,1653.8,a,1,0
P8,3,144,63,DST_081_M_ANG.png,600,400,hyperfair,0,a,883.22,a,0,1
P1,3,1,83,DST_124_F_HPY.png,400,600,unfair,0,j,3106.7,a,1,0
P1,3,2,111,DST_097_M_HPY.png,100,900,unfair,0,j,1286.08,a,1,1
P1,3,3,10,DST_133_F_ANG.png,400,600,unfair,0,j,816.63,a,0,0
P1,3,4,32,DST_182_F_ANG.png,800,200,hyperfair,0,a,815.11,a,0,0
P1,3,5,143,DST_083_M_HPY.png,900,100,hyperfair,0,a,686.01,a,1,1
P1,3,6,60,DST_118_M_ANG.png,500,500,fair,0,j,690.48,a,0,1
P1,3,7,92,DST_133_F_HPY.png,500,500,fair,0,j,712.62,a,1,0
P1,3,8,82,DST_009_F_HPY.png,400,600,unfair,0,j,652.98,a,1,0
P1,3,9,103,DST_126_F_HPY.png,800,200,hyperfair,0,a,658.46,a,1,0
P1,3,10,34,DST_042_F_ANG.png,900,100,hyperfair,0,a,694.36,a,0,0
P1,3,11,136,DST_093_M_HPY.png,700,300,hyperfair,0,a,730.26,a,1,1
P1,3,12,12,DST_040_F_ANG.png,400,600,unfair,0,j,797.52,a,0,0
P1,3,13,16,DST_131_F_ANG.png,500,500,fair,0,j,1163.73,a,0,0
P1,3,14,29,DST_183_F_ANG.png,700,300,hyperfair,0,a,1197.15,a,0,0
P1,3,15,27,DST_157_F_ANG.png,600,400,hyperfair,0,a,761.36,a,0,0
P1,3,16,97,DST_173_F_HPY.png,600,400,hyperfair,0,j,1101.56,a,1,0
P1,3,17,26,DST_135_F_ANG.png,600,400,hyperfair,0,j,917.12,a,0,0
P1,3,18,37,DST_071_M_ANG.png,100,900,unfair,0,j,702.24,a,0,1
P1,3,19,38,DST_043_M_ANG.png,100,900,unfair,0,j,661.68,a,0,1
P1,3,20,77,DST_017_F_HPY.png,200,800,unfair,0,j,650.82,a,1,0
P1,3,21,50,DST_089_M_ANG.png,500,500,fair,0,j,686.74,a,0,1
P1,3,22,87,DST_046_F_HPY.png,500,500,fair,0,j,1268.52,a,1,0
P1,3,23,52,DST_097_M_ANG.png,500,500,fair,0,j,901.75,a,0,1
P1,3,24,30,DST_036_F_ANG.png,700,300,hyperfair,0,a,720.13,a,0,0
P1,3,25,71,DST_012_M_ANG.png,900,100,hyperfair,0,a,641.54,a,0,1
P1,3,26,19,DST_025_F_ANG.png,500,500,fair,0,j,710.52,a,0,0
P1,3,27,127,DST_115_M_HPY.png,500,500,fair,0,j,989.81,a,1,1
P1,3,28,125,DST_096_M_HPY.png,500,500,fair,0,j,3081.61,a,1,1
P1,3,29,68,DST_064_M_ANG.png,800,200,hyperfair,0,a,1066.2,a,0,1
P1,3,30,76,DST_183_F_HPY.png,200,800,unfair,0,j,686.01,a,1,0
P1,3,31,101,DST_157_F_HPY.png,700,300,hyperfair,0,a,994.8,a,1,0
P1,3,32,69,DST_074_M_ANG.png,800,200,hyperfair,0,a,1657.97,a,0,1
P1,3,33,106,DST_027_F_HPY.png,900,100,hyperfair,0,a,693.7,a,1,0
P1,3,34,6,DST_130_F_ANG.png,200,800,unfair,0,j,810.73,a,0,0
P1,3,35,59,DST_098_M_ANG.png,500,500,fair,0,j,697.87,a,0,1
P1,3,36,84,DST_129_F_HPY.png,400,600,unfair,0,j,1245.54,a,1,0
P1,3,37,133,DST_030_M_HPY.png,600,400,hyperfair,0,j,1242.89,a,1,1
P1,3,38,20,DST_164_F_ANG.png,500,500,fair,0,j,1002.37,a,0,0
P1,3,39,142,DST_081_M_HPY.png,900,100,hyperfair,0,a,865.77,a,1,1
P1,3,40,100,DST_065_F_HPY.png,700,300,hyperfair,0,a,767.66,a,1,0
P1,3,41,33,DST_002_F_ANG.png,800,200,hyperfair,0,a,928.73,a,0,0
P1,3,42,17,DST_145_F_ANG.png,500,500,fair,0,j,745.58,a,0,0
P1,3,43,102,DST_177_F_HPY.png,700,300,hyperfair,0,a,795.08,a,1,0
P1,3,44,23,DST_032_F_ANG.png,500,500,fair,0,j,697.67,a,0,0
P1,3,45,134,DST_064_M_HPY.png,600,400,hyperfair,0,a,1164.56,a,1,1
P1,3,46,74,DST_036_F_HPY.png,100,900,unfair,0,j,894.52,a,1,0
P1,3,47,138,DST_118_M_HPY.png,700,300,hyperfair,0,a,728.61,a,1,1
P1,3,48,3,DST_138_F_ANG.png,100,900,unfair,0,j,829.53,a,0,0
P1,3,49,49,DST_068_M_ANG.png,500,500,fair,0,j,3083.85,a,0,1
P1,3,50,112,DST_116_M_HPY.png,200,800,unfair,0,j,1310.22,a,1,1
P1,3,51,67,DST_020_M_ANG.png,800,200,hyperfair,0,a,760.72,a,0,1
P1,3,52,120,DST_084_M_HPY.png,400,600,unfair,0,j,664.77,a,1,1
P1,3,53,109,DST_026_M_HPY.png,100,900,unfair,0,j,828.26,a,1,1
P1,3,54,122,DST_047_M_HPY.png,500,500,fair,0,j,921.57,a,1,1
P1,3,55,99,DST_186_F_HPY.png,600,400,hyperfair,0,j,1220.12,a,1,0
P1,3,56,108,DST_138_F_HPY.png,900,100,hyperfair,0,a,659.04,a,1,0
P1,3,57,8,DST_149_F_ANG.png,300,700,unfair,0,j,728.46,a,0,0
P1,3,58,2,DST_017_F_ANG.png,100,900,unfair,0,j,778.54,a,0,0
P1,3,59,96,DST_162_F_HPY.png,500,500,fair,0,j,4021.89,a,1,0
P1,3,60,13,DST_167_F_ANG.png,500,500,fair,0,j,759.94,a,0,0
P1,3,61,28,DST_161_F_ANG.png,700,300,hyperfair,0,a,742.58,a,0,0
P1,3,62,75,DST_142_F_HPY.png,100,900,unfair,0,j,761.88,a,1,0
P1,3,63,57,DST_088_M_ANG.png,500,500,fair,0,j,714.1,a,0,1
P1,3,64,123,DST_077_M_HPY.png,500,500,fair,0,j,4817.68,a,1,1
P1,3,65,24,DST_147_F_ANG.png,500,500,fair,0,j,644.24,a,0,0
P1,3,66,79,DST_149_F_HPY.png,300,700,unfair,0,j,825.82,a,1,0
P1,3,67,85,DST_002_F_HPY.png,500,500,fair,0,j,1494.39,a,1,0
P1,3,68,89,DST_137_F_HPY.png,500,500,fair,0,j,524.38,a,1,0
P1,3,69,42,DST_026_M_ANG.png,200,800,unfair,0,j,725.99,a,0,1
P1,3,70,91,DST_025_F_HPY.png,500,500,fair,0,j,646.47,a,1,0
P1,3,71,64,DST_106_M_ANG.png,700,300,hyperfair,0,a,876.38,a,0,1
P1,3,72,31,DST_171_F_ANG.png,800,200,hyperfair,0,j,791.8,a,0,0
P1,3,73,113,DST_016_M_HPY.png,200,800,unfair,0,j,1534.61,a,1,1
P1,3,74,36,DST_004_F_ANG.png,900,100,hyperfair,0,a,865,a,0,0
P1,3,75,7,DST_009_F_ANG.png,300,700,unfair,0,j,905.78,a,0,0
P1,3,76,131,DST_088_M_HPY.png,500,500,fair,0,j,659.47,a,1,1
P1,3,77,62,DST_051_M_ANG.png,600,400,hyperfair,0,j,853.69,a,0,1
P1,3,78,1,DST_046_F_ANG.png,100,900,unfair,0,j,915.1,a,0,0
P1,3,79,80,DST_128_F_HPY.png,300,700,unfair,0,j,844.77,a,1,0
P1,3,80,116,DST_010_M_HPY.png,300,700,unfair,0,j,925.04,a,1,1
P1,3,81,47,DST_030_M_ANG.png,400,600,unfair,0,j,1078.05,a,0,1
P1,3,82,18,DST_023_F_ANG.png,500,500,fair,0,j,584.73,a,0,0
P1,3,83,88,DST_131_F_HPY.png,500,500,fair,0,j,852.4,a,1,0
P1,3,84,55,DST_096_M_ANG.png,500,500,fair,0,j,804.04,a,0,1
P1,3,85,25,DST_029_F_ANG.png,600,400,hyperfair,0,j,914.33,a,0,0
P1,3,86,105,DST_185_F_HPY.png,800,200,hyperfair,0,a,715.1,a,1,0
P1,3,87,129,DST_031_M_HPY.png,500,500,fair,0,j,972.4,a,1,1
P1,3,88,137,DST_089_M_HPY.png,700,300,hyperfair,0,a,821.68,a,1,1
P1,3,89,139,DST_119_M_HPY.png,800,200,hyperfair,0,a,689.54,a,1,1
P1,3,90,98,DST_174_F_HPY.png,600,400,hyperfair,0,j,1061.12,a,1,0
P1,3,91,121,DST_012_M_HPY.png,500,500,fair,0,j,2041.33,a,1,1
P1,3,92,94,DST_159_F_HPY.png,500,500,fair,0,j,826.95,a,1,0
P1,3,93,11,DST_137_F_ANG.png,400,600,unfair,0,j,664.05,a,0,0
P1,3,94,110,DST_086_M_HPY.png,100,900,unfair,0,j,813.23,a,1,1
P1,3,95,117,DST_015_M_HPY.png,300,700,unfair,0,j,873.78,a,1,1
P1,3,96,93,DST_146_F_HPY.png,500,500,fair,0,j,8854.39,a,1,0
P1,3,97,45,DST_099_M_ANG.png,300,700,unfair,0,j,866.86,a,0,1
P1,3,98,90,DST_164_F_HPY.png,500,500,fair,0,j,622.22,a,1,0
P1,3,99,9,DST_129_F_ANG.png,300,700,unfair,0,j,773.21,a,0,0
P1,3,100,39,DST_031_M_ANG.png,100,900,unfair,0,j,691.05,a,0,1
P1,3,101,56,DST_120_M_ANG.png,500,500,fair,0,j,4038.12,a,0,1
P1,3,102,43,DST_047_M_ANG.png,300,700,unfair,0,j,706.81,a,0,1
P1,3,103,132,DST_122_M_HPY.png,500,500,fair,0,j,659.32,a,1,1
P1,3,104,104,DST_182_F_HPY.png,800,200,hyperfair,0,a,903.95,a,1,0
P1,3,105,107,DST_130_F_HPY.png,900,100,hyperfair,0,j,1489.68,a,1,0
P1,3,106,41,DST_016_M_ANG.png,200,800,unfair,0,j,852.68,a,0,1
P1,3,107,144,DST_091_M_HPY.png,900,100,hyperfair,0,a,561.2,a,1,1
P1,3,108,70,DST_115_M_ANG.png,900,100,hyperfair,0,a,701.23,a,0,1
P1,3,109,63,DST_081_M_ANG.png,600,400,hyperfair,0,j,2389.87,a,0,1
P1,3,110,135,DST_071_M_HPY.png,600,400,hyperfair,0,j,1065.9,a,1,1
P1,3,111,86,DST_040_F_HPY.png,500,500,fair,0,j,876.04,a,1,0
P1,3,112,118,DST_048_M_HPY.png,400,600,unfair,0,j,999.23,a,1,1
P1,3,113,21,DST_174_F_ANG.png,500,500,fair,0,j,1085.39,a,0,0
P1,3,114,61,DST_010_M_ANG.png,600,400,hyperfair,0,j,1330.34,a,0,1
P1,3,115,14,DST_005_F_ANG.png,500,500,fair,0,j,1802.47,a,0,0
P1,3,116,53,DST_103_M_ANG.png,500,500,fair,0,j,838.21,a,0,1
P1,3,117,124,DST_013_M_HPY.png,500,500,fair,0,j,1030.65,a,1,1
P1,3,118,58,DST_091_M_ANG.png,500,500,fair,0,j,1040.95,a,0,1
P1,3,119,81,DST_135_F_HPY.png,300,700,unfair,0,j,995.22,a,1,0
P1,3,120,4,DST_024_F_ANG.png,200,800,unfair,0,j,1322.38,a,0,0
P1,3,121,5,DST_124_F_ANG.png,200,800,unfair,0,j,888.26,a,0,0
P1,3,122,48,DST_056_M_ANG.png,400,600,unfair,0,j,835.41,a,0,1
P1,3,123,65,DST_110_M_ANG.png,700,300,hyperfair,0,a,960.08,a,0,1
P1,3,124,140,DST_018_M_HPY.png,800,200,hyperfair,0,a,1145.38,a,1,1
P1,3,125,115,DST_103_M_HPY.png,300,700,unfair,0,j,1544.35,a,1,1
P1,3,126,35,DST_173_F_ANG.png,900,100,hyperfair,0,a,953.25,a,0,0
P1,3,127,44,DST_079_M_ANG.png,300,700,unfair,0,a,689.45,a,0,1
P1,3,128,95,DST_161_F_HPY.png,500,500,fair,0,j,839.09,a,1,0
P1,3,129,54,DST_022_M_ANG.png,500,500,fair,0,j,934.7,a,0,1
P1,3,130,114,DST_098_M_HPY.png,200,800,unfair,0,j,813.7,a,1,1
P1,3,131,22,DST_186_F_ANG.png,500,500,fair,0,j,620.35,a,0,0
P1,3,132,126,DST_114_M_HPY.png,500,500,fair,0,j,1301.95,a,1,1
P1,3,133,128,DST_022_M_HPY.png,500,500,fair,0,j,949.56,a,1,1
P1,3,134,15,DST_123_F_ANG.png,500,500,fair,0,j,643.02,a,0,0
P1,3,135,72,DST_013_M_ANG.png,900,100,hyperfair,0,a,1077.83,a,0,1
P1,3,136,46,DST_048_M_ANG.png,400,600,unfair,0,j,970.27,a,0,1
P1,3,137,130,DST_056_M_HPY.png,500,500,fair,0,j,1586.25,a,1,1
P1,3,138,51,DST_090_M_ANG.png,500,500,fair,0,j,1191.8,a,0,1
P1,3,139,73,DST_029_F_HPY.png,100,900,unfair,0,j,965.24,a,1,0
P1,3,140,66,DST_114_M_ANG.png,700,300,hyperfair,0,a,940.73,a,0,1
P1,3,141,119,DST_074_M_HPY.png,400,600,unfair,0,j,884.93,a,1,1
P1,3,142,141,DST_079_M_HPY.png,800,200,hyperfair,0,a,3760.61,a,1,1
P1,3,143,78,DST_145_F_HPY.png,200,800,unfair,0,j,919.45,a,1,0
P1,3,144,40,DST_119_M_ANG.png,200,800,unfair,0,j,870.16,a,0,1
P2,3,1,97,DST_173_F_HPY.png,600,400,hyperfair,0,a,3231.88,a,1,0
P2,3,2,139,DST_119_M_HPY.png,800,200,hyperfair,0,a,3085.3,a,1,1
P2,3,3,120,DST_084_M_HPY.png,400,600,unfair,0,a,2783.37,a,1,1
P2,3,4,49,DST_068_M_ANG.png,500,500,fair,0,a,1535.77,a,0,1
P2,3,5,62,DST_051_M_ANG.png,600,400,hyperfair,0,a,2050.29,a,0,1
P2,3,6,77,DST_017_F_HPY.png,200,800,unfair,0,j,1357.96,a,1,0
P2,3,7,11,DST_137_F_ANG.png,400,600,unfair,0,a,2053.66,a,0,0
P2,3,8,58,DST_091_M_ANG.png,500,500,fair,0,a,915.37,a,0,1
P2,3,9,85,DST_002_F_HPY.png,500,500,fair,0,a,1168.92,a,1,0
P2,3,10,73,DST_029_F_HPY.png,100,900,unfair,0,j,1649.55,a,1,0
P2,3,11,122,DST_047_M_HPY.png,500,500,fair,0,a,891.65,a,1,1
P2,3,12,43,DST_047_M_ANG.png,300,700,unfair,0,j,2505.54,a,0,1
P2,3,13,82,DST_009_F_HPY.png,400,600,unfair,0,a,1905.54,a,1,0
P2,3,14,103,DST_126_F_HPY.png,800,200,hyperfair,0,a,1509.17,a,1,0
P2,3,15,40,DST_119_M_ANG.png,200,800,unfair,0,j,1288.02,a,0,1
P2,3,16,96,DST_162_F_HPY.png,500,500,fair,0,a,931.58,a,1,0
P2,3,17,2,DST_017_F_ANG.png,100,900,unfair,0,j,1212.48,a,0,0
P2,3,18,59,DST_098_M_ANG.png,500,500,fair,0,a,1036.36,a,0,1
P2,3,19,20,DST_164_F_ANG.png,500,500,fair,0,a,834.33,a,0,0
P2,3,20,50,DST_089_M_ANG.png,500,500,fair,0,a,979.92,a,0,1
P2,3,21,34,DST_042_F_ANG.png,900,100,hyperfair,0,a,1450.26,a,0,0
P2,3,22,130,DST_056_M_HPY.png,500,500,fair,0,a,943.03,a,1,1
P2,3,23,41,DST_016_M_ANG.png,200,800,unfair,0,j,1607.21,a,0,1
P2,3,24,31,DST_171_F_ANG.png,800,200,hyperfair,0,a,1429.9,a,0,0
P2,3,25,10,DST_133_F_ANG.png,400,600,unfair,0,a,1418.22,a,0,0
P2,3,26,88,DST_131_F_HPY.png,500,500,fair,0,a,832.32,a,1,0
P2,3,27,105,DST_185_F_HPY.png,800,200,hyperfair,0,a,1357.81,a,1,0
P2,3,28,90,DST_164_F_HPY.png,500,500,fair,0,a,935.96,a,1,0
P2,3,29,138,DST_118_M_HPY.png,700,300,hyperfair,0,a,1105.06,a,1,1
P2,3,30,83,DST_124_F_HPY.png,400,600,unfair,0,a,1444.41,a,1,0
P2,3,31,54,DST_022_M_ANG.png,500,500,fair,0,a,1178.2,a,0,1
P2,3,32,42,DST_026_M_ANG.png,200,800,unfair,0,j,1175.85,a,0,1
P2,3,33,119,DST_074_M_HPY.png,400,600,unfair,0,a,1209.53,a,1,1
P2,3,34,99,DST_186_F_HPY.png,600,400,hyperfair,0,a,4055.28,a,1,0
P2,3,35,110,DST_086_M_HPY.png,100,900,unfair,0,j,1316.11,a,1,1
P2,3,36,30,DST_036_F_ANG.png,700,300,hyperfair,0,a,1120.02,a,0,0
P2,3,37,48,DST_056_M_ANG.png,400,600,unfair,0,a,1086.5,a,0,1
P2,3,38,117,DST_015_M_HPY.png,300,700,unfair,0,j,1458.81,a,1,1
P2,3,39,71,DST_012_M_ANG.png,900,100,hyperfair,0,a,949.59,a,0,1
P2,3,40,123,DST_077_M_HPY.png,500,500,fair,0,a,973.85,a,1,1
P2,3,41,26,DST_135_F_ANG.png,600,400,hyperfair,0,a,3477.02,a,0,0
P2,3,42,28,DST_161_F_ANG.png,700,300,hyperfair,0,a,840.4,a,0,0
P2,3,43,114,DST_098_M_HPY.png,200,800,unfair,0,j,1109.24,a,1,1
P2,3,44,39,DST_031_M_ANG.png,100,900,unfair,0,j,935.87,a,0,1
P2,3,45,137,DST_089_M_HPY.png,700,300,hyperfair,0,a,912.4,a,1,1
P2,3,46,13,DST_167_F_ANG.png,500,500,fair,0,a,908.29,a,0,0
P2,3,47,84,DST_129_F_HPY.png,400,600,unfair,0,a,1543.61,a,1,0
P2,3,48,91,DST_025_F_HPY.png,500,500,fair,0,a,807.29,a,1,0
P2,3,49,113,DST_016_M_HPY.png,200,800,unfair,0,j,934.4,a,1,1
P2,3,50,112,DST_116_M_HPY.png,200,800,unfair,0,j,978.76,a,1,1
P2,3,51,6,DST_130_F_ANG.png,200,800,unfair,0,j,1007.74,a,0,0
P2,3,52,78,DST_145_F_HPY.png,200,800,unfair,0,j,890.4,a,1,0
P2,3,53,32,DST_182_F_ANG.png,800,200,hyperfair,0,a,1170.43,a,0,0
P2,3,54,111,DST_097_M_HPY.png,100,900,unfair,0,j,899.37,a,1,1
P2,3,55,47,DST_030_M_ANG.png,400,600,unfair,0,j,1551.39,a,0,1
P2,3,56,106,DST_027_F_HPY.png,900,100,hyperfair,0,a,1072.96,a,1,0
P2,3,57,51,DST_090_M_ANG.png,500,500,fair,0,a,867.06,a,0,1
P2,3,58,4,DST_024_F_ANG.png,200,800,unfair,0,j,1520.64,a,0,0
P2,3,59,5,DST_124_F_ANG.png,200,800,unfair,0,j,965.56,a,0,0
P2,3,60,63,DST_081_M_ANG.png,600,400,hyperfair,0,a,1086.46,a,0,1
P2,3,61,67,DST_020_M_ANG.png,800,200,hyperfair,0,a,816.88,a,0,1
P2,3,62,45,DST_099_M_ANG.png,300,700,unfair,0,j,1423.14,a,0,1
P2,3,63,127,DST_115_M_HPY.png,500,500,fair,0,a,835.85,a,1,1
P2,3,64,140,DST_018_M_HPY.png,800,200,hyperfair,0,a,786.51,a,1,1
P2,3,65,17,DST_145_F_ANG.png,500,500,fair,0,a,3584.81,a,0,0
P2,3,66,68,DST_064_M_ANG.png,800,200,hyperfair,0,a,735.86,a,0,1
P2,3,67,107,DST_130_F_HPY.png,900,100,hyperfair,0,a,944.95,a,1,0
P2,3,68,133,DST_030_M_HPY.png,600,400,hyperfair,0,a,826.82,a,1,1
P2,3,69,87,DST_046_F_HPY.png,500,500,fair,0,a,904.85,a,1,0
P2,3,70,141,DST_079_M_HPY.png,800,200,hyperfair,0,a,770.96,a,1,1
P2,3,71,72,DST_013_M_ANG.png,900,100,hyperfair,0,a,724.13,a,0,1
P2,3,72,118,DST_048_M_HPY.png,400,600,unfair,0,a,1127.1,a,1,1
P2,3,73,108,DST_138_F_HPY.png,900,100,hyperfair,0,a,791.62,a,1,0
P2,3,74,55,DST_096_M_ANG.png,500,500,fair,0,a,792.89,a,0,1
P2,3,75,116,DST_010_M_HPY.png,300,700,unfair,0,j,1284.43,a,1,1
P2,3,76,29,DST_183_F_ANG.png,700,300,hyperfair,0,a,752.05,a,0,0
P2,3,77,74,DST_036_F_HPY.png,100,900,unfair,0,j,993.51,a,1,0
P2,3,78,65,DST_110_M_ANG.png,700,300,hyperfair,0,a,709.93,a,0,1
P2,3,79,46,DST_048_M_ANG.png,400,600,unfair,0,a,1143.75,a,0,1
P2,3,80,128,DST_022_M_HPY.png,500,500,fair,0,a,760.25,a,1,1
P2,3,81,102,DST_177_F_HPY.png,700,300,hyperfair,0,a,711.81,a,1,0
P2,3,82,3,DST_138_F_ANG.png,100,900,unfair,0,j,952.98,a,0,0
P2,3,83,89,DST_137_F_HPY.png,500,500,fair,0,a,706.83,a,1,0
P2,3,84,100,DST_065_F_HPY.png,700,300,hyperfair,0,a,662.97,a,1,0
P2,3,85,52,DST_097_M_ANG.png,500,500,fair,0,a,729.03,a,0,1
P2,3,86,15,DST_123_F_ANG.png,500,500,fair,0,a,893.92,a,0,0
P2,3,87,19,DST_025_F_ANG.png,500,500,fair,0,a,780.04,a,0,0
P2,3,88,25,DST_029_F_ANG.png,600,400,hyperfair,0,a,682.1,a,0,0
P2,3,89,61,DST_010_M_ANG.png,600,400,hyperfair,0,a,865.54,a,0,1
P2,3,90,64,DST_106_M_ANG.png,700,300,hyperfair,0,a,893.28,a,0,1
P2,3,91,56,DST_120_M_ANG.png,500,500,fair,0,a,729.2,a,0,1
P2,3,92,125,DST_096_M_HPY.png,500,500,fair,0,a,910.7,a,1,1
P2,3,93,12,DST_040_F_ANG.png,400,600,unfair,0,a,806.11,a,0,0
P2,3,94,75,DST_142_F_HPY.png,100,900,unfair,0,j,1093.72,a,1,0
P2,3,95,76,DST_183_F_HPY.png,200,800,unfair,0,j,1049.68,a,1,0
P2,3,96,142,DST_081_M_HPY.png,900,100,hyperfair,0,a,670.41,a,1,1
P2,3,97,109,DST_026_M_HPY.png,100,900,unfair,0,j,1201.03,a,1,1
P2,3,98,1,DST_046_F_ANG.png,100,900,unfair,0,j,834.19,a,0,0
P2,3,99,131,DST_088_M_HPY.png,500,500,fair,0,a,653.3,a,1,1
P2,3,100,8,DST_149_F_ANG.png,300,700,unfair,0,j,897.76,a,0,0
P2,3,101,38,DST_043_M_ANG.png,100,900,unfair,0,j,844.01,a,0,1
P2,3,102,14,DST_005_F_ANG.png,500,500,fair,0,a,807.6,a,0,0
P2,3,103,94,DST_159_F_HPY.png,500,500,fair,0,a,744.63,a,1,0
P2,3,104,126,DST_114_M_HPY.png,500,500,fair,0,a,668.39,a,1,1
P2,3,105,36,DST_004_F_ANG.png,900,100,hyperfair,0,a,700.3,a,0,0
P2,3,106,98,DST_174_F_HPY.png,600,400,hyperfair,0,a,718.86,a,1,0
P2,3,107,92,DST_133_F_HPY.png,500,500,fair,0,a,753.97,a,1,0
P2,3,108,33,DST_002_F_ANG.png,800,200,hyperfair,0,a,627.3,a,0,0
P2,3,109,129,DST_031_M_HPY.png,500,500,fair,0,a,769.15,a,1,1
P2,3,110,22,DST_186_F_ANG.png,500,500,fair,0,a,660.01,a,0,0
P2,3,111,35,DST_173_F_ANG.png,900,100,hyperfair,0,a,563.1,a,0,0
P2,3,112,81,DST_135_F_HPY.png,300,700,unfair,0,j,3994.89,a,1,0
P2,3,113,21,DST_174_F_ANG.png,500,500,fair,0,a,807.54,a,0,0
P2,3,114,135,DST_071_M_HPY.png,600,400,hyperfair,0,a,935.35,a,1,1
P2,3,115,37,DST_071_M_ANG.png,100,900,unfair,0,j,1166.35,a,0,1
P2,3,116,93,DST_146_F_HPY.png,500,500,fair,0,a,686.55,a,1,0
P2,3,117,53,DST_103_M_ANG.png,500,500,fair,0,a,820.51,a,0,1
P2,3,118,144,DST_091_M_HPY.png,900,100,hyperfair,0,a,641.53,a,1,1
P2,3,119,70,DST_115_M_ANG.png,900,100,hyperfair,0,a,729.45,a,0,1
P2,3,120,136,DST_093_M_HPY.png,700,300,hyperfair,0,a,810.45,a,1,1
P2,3,121,80,DST_128_F_HPY.png,300,700,unfair,0,j,871.3,a,1,0
P2,3,122,115,DST_103_M_HPY.png,300,700,unfair,0,j,1062.78,a,1,1
P2,3,123,9,DST_129_F_ANG.png,300,700,unfair,0,j,732.89,a,0,0
P2,3,124,24,DST_147_F_ANG.png,500,500,fair,0,a,795.95,a,0,0
P2,3,125,132,DST_122_M_HPY.png,500,500,fair,0,a,637.91,a,1,1
P2,3,126,66,DST_114_M_ANG.png,700,300,hyperfair,0,a,835.38,a,0,1
P2,3,127,124,DST_013_M_HPY.png,500,500,fair,0,a,687.81,a,1,1
P2,3,128,57,DST_088_M_ANG.png,500,500,fair,0,a,693.94,a,0,1
P2,3,129,79,DST_149_F_HPY.png,300,700,unfair,0,j,1351.47,a,1,0
P2,3,130,69,DST_074_M_ANG.png,800,200,hyperfair,0,a,735.18,a,0,1
P2,3,131,95,DST_161_F_HPY.png,500,500,fair,0,a,678.06,a,1,0
P2,3,132,27,DST_157_F_ANG.png,600,400,hyperfair,0,a,905.82,a,0,0
P2,3,133,7,DST_009_F_ANG.png,300,700,unfair,0,j,878.45,a,0,0
P2,3,134,18,DST_023_F_ANG.png,500,500,fair,0,a,726.95,a,0,0
P2,3,135,134,DST_064_M_HPY.png,600,400,hyperfair,0,a,695.25,a,1,1
P2,3,136,104,DST_182_F_HPY.png,800,200,hyperfair,0,a,761.45,a,1,0
P2,3,137,23,DST_032_F_ANG.png,500,500,fair,0,a,697.83,a,0,0
P2,3,138,101,DST_157_F_HPY.png,700,300,hyperfair,0,a,956.49,a,1,0
P2,3,139,44,DST_079_M_ANG.png,300,700,unfair,0,j,785.27,a,0,1
P2,3,140,121,DST_012_M_HPY.png,500,500,fair,0,a,913.02,a,1,1
P2,3,141,16,DST_131_F_ANG.png,500,500,fair,0,a,913.07,a,0,0
P2,3,142,143,DST_083_M_HPY.png,900,100,hyperfair,0,a,885.96,a,1,1
P2,3,143,60,DST_118_M_ANG.png,500,500,fair,0,a,719.82,a,0,1
P2,3,144,86,DST_040_F_HPY.png,500,500,fair,0,a,1143.06,a,1,0
P3,3,1,124,DST_013_M_HPY.png,500,500,fair,0,a,1228.53,a,1,1
P3,3,2,35,DST_173_F_ANG.png,900,100,hyperfair,0,a,1371.77,a,0,0
P3,3,3,136,DST_093_M_HPY.png,700,300,hyperfair,0,a,1363.44,a,1,1
P3,3,4,17,DST_145_F_ANG.png,500,500,fair,0,a,764.13,a,0,0
P3,3,5,140,DST_018_M_HPY.png,800,200,hyperfair,0,a,1086.74,a,1,1
P3,3,6,127,DST_115_M_HPY.png,500,500,fair,0,a,754.72,a,1,1
P3,3,7,21,DST_174_F_ANG.png,500,500,fair,0,a,727.15,a,0,0
P3,3,8,115,DST_103_M_HPY.png,300,700,unfair,0,a,1637.4,a,1,1
P3,3,9,77,DST_017_F_HPY.png,200,800,unfair,0,a,2066.18,a,1,0
P3,3,10,52,DST_097_M_ANG.png,500,500,fair,0,a,799.67,a,0,1
P3,3,11,103,DST_126_F_HPY.png,800,200,hyperfair,0,a,750.19,a,1,0
P3,3,12,4,DST_024_F_ANG.png,200,800,unfair,0,j,1854.41,a,0,0
P3,3,13,137,DST_089_M_HPY.png,700,300,hyperfair,0,a,659.1,a,1,1
P3,3,14,128,DST_022_M_HPY.png,500,500,fair,0,a,615.41,a,1,1
P3,3,15,73,DST_029_F_HPY.png,100,900,unfair,0,a,668.64,a,1,0
P3,3,16,71,DST_012_M_ANG.png,900,100,hyperfair,0,a,1138.41,a,0,1
P3,3,17,118,DST_048_M_HPY.png,400,600,unfair,0,a,449.97,a,1,1
P3,3,18,100,DST_065_F_HPY.png,700,300,hyperfair,0,a,719.6,a,1,0
P3,3,19,14,DST_005_F_ANG.png,500,500,fair,0,a,737.06,a,0,0
P3,3,20,142,DST_081_M_HPY.png,900,100,hyperfair,0,a,739.61,a,1,1
P3,3,21,82,DST_009_F_HPY.png,400,600,unfair,0,a,1187.27,a,1,0
P3,3,22,106,DST_027_F_HPY.png,900,100,hyperfair,0,a,580.14,a,1,0
P3,3,23,86,DST_040_F_HPY.png,500,500,fair,0,a,649.45,a,1,0
P3,3,24,37,DST_071_M_ANG.png,100,900,unfair,0,a,783.46,a,0,1
P3,3,25,49,DST_068_M_ANG.png,500,500,fair,0,a,863.93,a,0,1
P3,3,26,126,DST_114_M_HPY.png,500,500,fair,0,a,688.04,a,1,1
P3,3,27,32,DST_182_F_ANG.png,800,200,hyperfair,0,j,1506.44,a,0,0
P3,3,28,58,DST_091_M_ANG.png,500,500,fair,0,a,757.91,a,0,1
P3,3,29,111,DST_097_M_HPY.png,100,900,unfair,0,j,1222.68,a,1,1
P3,3,30,42,DST_026_M_ANG.png,200,800,unfair,0,j,1124.82,a,0,1
P3,3,31,61,DST_010_M_ANG.png,600,400,hyperfair,0,a,2004.43,a,0,1
P3,3,32,130,DST_056_M_HPY.png,500,500,fair,0,a,724.73,a,1,1
P3,3,33,20,DST_164_F_ANG.png,500,500,fair,0,a,2410.48,a,0,0
P3,3,34,80,DST_128_F_HPY.png,300,700,unfair,0,a,1800.68,a,1,0
P3,3,35,29,DST_183_F_ANG.png,700,300,hyperfair,0,a,1249.51,a,0,0
P3,3,36,53,DST_103_M_ANG.png,500,500,fair,0,a,750.45,a,0,1
P3,3,37,27,DST_157_F_ANG.png,600,400,hyperfair,0,a,1392.56,a,0,0
P3,3,38,13,DST_167_F_ANG.png,500,500,fair,0,a,711.43,a,0,0
P3,3,39,67,DST_020_M_ANG.png,800,200,hyperfair,0,a,872.13,a,0,1
P3,3,40,69,DST_074_M_ANG.png,800,200,hyperfair,0,a,600.81,a,0,1
P3,3,41,132,DST_122_M_HPY.png,500,500,fair,0,a,701.36,a,1,1
P3,3,42,95,DST_161_F_HPY.png,500,500,fair,0,a,644.68,a,1,0
P3,3,43,121,DST_012_M_HPY.png,500,500,fair,0,a,543.04,a,1,1
P3,3,44,91,DST_025_F_HPY.png,500,500,fair,0,a,666.98,a,1,0
P3,3,45,125,DST_096_M_HPY.png,500,500,fair,0,a,692.72,a,1,1
P3,3,46,33,DST_002_F_ANG.png,800,200,hyperfair,0,a,614.85,a,0,0
P3,3,47,65,DST_110_M_ANG.png,700,300,hyperfair,0,a,875.74,a,0,1
P3,3,48,122,DST_047_M_HPY.png,500,500,fair,0,a,696.53,a,1,1
P3,3,49,62,DST_051_M_ANG.png,600,400,hyperfair,0,a,651.58,a,0,1
P3,3,50,114,DST_098_M_HPY.png,200,800,unfair,0,a,1583.87,a,1,1
P3,3,51,68,DST_064_M_ANG.png,800,200,hyperfair,0,a,688.35,a,0,1
P3,3,52,44,DST_079_M_ANG.png,300,700,unfair,0,j,1874.79,a,0,1
P3,3,53,11,DST_137_F_ANG.png,400,600,unfair,0,a,1160.13,a,0,0
P3,3,54,94,DST_159_F_HPY.png,500,500,fair,0,a,680.94,a,1,0
P3,3,55,75,DST_142_F_HPY.png,100,900,unfair,0,j,1276.8,a,1,0
P3,3,56,9,DST_129_F_ANG.png,300,700,unfair,0,a,1416.47,a,0,0
P3,3,57,47,DST_030_M_ANG.png,400,600,unfair,0,a,860.22,a,0,1
P3,3,58,57,DST_088_M_ANG.png,500,500,fair,0,a,791.24,a,0,1
P3,3,59,41,DST_016_M_ANG.png,200,800,unfair,0,j,1319.55,a,0,1
P3,3,60,51,DST_090_M_ANG.png,500,500,fair,0,a,802.13,a,0,1
P3,3,61,3,DST_138_F_ANG.png,100,900,unfair,0,j,1281.28,a,0,0
P3,3,62,15,DST_123_F_ANG.png,500,500,fair,0,a,894.92,a,0,0
P3,3,63,107,DST_130_F_HPY.png,900,100,hyperfair,0,a,2007.55,a,1,0
P3,3,64,113,DST_016_M_HPY.png,200,800,unfair,0,j,1287.99,a,1,1
P3,3,65,38,DST_043_M_ANG.png,100,900,unfair,0,j,1441.76,a,0,1
P3,3,66,72,DST_013_M_ANG.png,900,100,hyperfair,0,a,935.76,a,0,1
P3,3,67,87,DST_046_F_HPY.png,500,500,fair,0,a,1281.48,a,1,0
P3,3,68,64,DST_106_M_ANG.png,700,300,hyperfair,0,a,1231.04,a,0,1
P3,3,69,16,DST_131_F_ANG.png,500,500,fair,0,a,1019.13,a,0,0
P3,3,70,26,DST_135_F_ANG.png,600,400,hyperfair,0,a,1104.99,a,0,0
P3,3,71,5,DST_124_F_ANG.png,200,800,unfair,0,j,1523.1,a,0,0
P3,3,72,63,DST_081_M_ANG.png,600,400,hyperfair,0,a,948.79,a,0,1
P3,3,73,23,DST_032_F_ANG.png,500,500,fair,0,a,752.06,a,0,0
P3,3,74,97,DST_173_F_HPY.png,600,400,hyperfair,0,a,1216.92,a,1,0
P3,3,75,85,DST_002_F_HPY.png,500,500,fair,0,a,783.51,a,1,0
P3,3,76,144,DST_091_M_HPY.png,900,100,hyperfair,0,a,720.55,a,1,1
P3,3,77,45,DST_099_M_ANG.png,300,700,unfair,0,j,1058.18,a,0,1
P3,3,78,28,DST_161_F_ANG.png,700,300,hyperfair,0,a,885.1,a,0,0
P3,3,79,18,DST_023_F_ANG.png,500,500,fair,0,a,782.26,a,0,0
P3,3,80,117,DST_015_M_HPY.png,300,700,unfair,0,j,1599.04,a,1,1
P3,3,81,90,DST_164_F_HPY.png,500,500,fair,0,a,554.5,a,1,0
P3,3,82,74,DST_036_F_HPY.png,100,900,unfair,0,j,965.6,a,1,0
P3,3,83,96,DST_162_F_HPY.png,500,500,fair,0,a,938.36,a,1,0
P3,3,84,138,DST_118_M_HPY.png,700,300,hyperfair,0,a,901.32,a,1,1
P3,3,85,84,DST_129_F_HPY.png,400,600,unfair,0,a,2222.99,a,1,0
P3,3,86,31,DST_171_F_ANG.png,800,200,hyperfair,0,a,1219.63,a,0,0
P3,3,87,78,DST_145_F_HPY.png,200,800,unfair,0,j,1056.13,a,1,0
P3,3,88,112,DST_116_M_HPY.png,200,800,unfair,0,j,1513.22,a,1,1
P3,3,89,66,DST_114_M_ANG.png,700,300,hyperfair,0,a,1001.48,a,0,1
P3,3,90,36,DST_004_F_ANG.png,900,100,hyperfair,0,a,1151.47,a,0,0
P3,3,91,129,DST_031_M_HPY.png,500,500,fair,0,a,1022.75,a,1,1
P3,3,92,134,DST_064_M_HPY.png,600,400,hyperfair,0,a,1156.38,a,1,1
P3,3,93,93,DST_146_F_HPY.png,500,500,fair,0,a,1125.46,a,1,0
P3,3,94,88,DST_131_F_HPY.png,500,500,fair,0,a,1307.04,a,1,0
P3,3,95,133,DST_030_M_HPY.png,600,400,hyperfair,0,a,736.98,a,1,1
P3,3,96,89,DST_137_F_HPY.png,500,500,fair,0,a,674.04,a,1,0
P3,3,97,110,DST_086_M_HPY.png,100,900,unfair,0,j,1396.52,a,1,1
P3,3,98,120,DST_084_M_HPY.png,400,600,unfair,0,a,1227.63,a,1,1
P3,3,99,50,DST_089_M_ANG.png,500,500,fair,0,a,1318.46,a,0,1
P3,3,100,116,DST_010_M_HPY.png,300,700,unfair,0,j,1042.16,a,1,1
P3,3,101,6,DST_130_F_ANG.png,200,800,unfair,0,j,1732.07,a,0,0
P3,3,102,59,DST_098_M_ANG.png,500,500,fair,0,a,844.48,a,0,1
P3,3,103,30,DST_036_F_ANG.png,700,300,hyperfair,0,a,1063.78,a,0,0
P3,3,104,83,DST_124_F_HPY.png,400,600,unfair,0,a,1948.05,a,1,0
P3,3,105,108,DST_138_F_HPY.png,900,100,hyperfair,0,a,923.63,a,1,0
P3,3,106,1,DST_046_F_ANG.png,100,900,unfair,0,j,1141.67,a,0,0
P3,3,107,76,DST_183_F_HPY.png,200,800,unfair,0,a,2102.14,a,1,0
P3,3,108,101,DST_157_F_HPY.png,700,300,hyperfair,0,a,1313.05,a,1,0
P3,3,109,135,DST_071_M_HPY.png,600,400,hyperfair,0,a,909.21,a,1,1
P3,3,110,119,DST_074_M_HPY.png,400,600,unfair,0,a,1415.68,a,1,1
P3,3,111,2,DST_017_F_ANG.png,100,900,unfair,0,j,1293.37,a,0,0
P3,3,112,105,DST_185_F_HPY.png,800,200,hyperfair,0,a,713.14,a,1,0
P3,3,113,22,DST_186_F_ANG.png,500,500,fair,0,a,1035.91,a,0,0
P3,3,114,79,DST_149_F_HPY.png,300,700,unfair,0,a,2194.36,a,1,0
P3,3,115,143,DST_083_M_HPY.png,900,100,hyperfair,0,a,1802.14,a,1,1
P3,3,116,55,DST_096_M_ANG.png,500,500,fair,0,a,705.32,a,0,1
P3,3,117,102,DST_177_F_HPY.png,700,300,hyperfair,0,a,703.79,a,1,0
P3,3,118,10,DST_133_F_ANG.png,400,600,unfair,0,a,1268.59,a,0,0
P3,3,119,12,DST_040_F_ANG.png,400,600,unfair,0,a,930.92,a,0,0
P3,3,120,123,DST_077_M_HPY.png,500,500,fair,0,a,637.27,a,1,1
P3,3,121,48,DST_056_M_ANG.png,400,600,unfair,0,a,1073.42,a,0,1
P3,3,122,25,DST_029_F_ANG.png,600,400,hyperfair,0,a,758.59,a,0,0
P3,3,123,81,DST_135_F_HPY.png,300,700,unfair,0,a,1719.09,a,1,0
P3,3,124,70,DST_115_M_ANG.png,900,100,hyperfair,0,a,866.48,a,0,1
P3,3,125,104,DST_182_F_HPY.png,800,200,hyperfair,0,a,837.78,a,1,0
P3,3,126,139,DST_119_M_HPY.png,800,200,hyperfair,0,a,1049.55,a,1,1
P3,3,127,98,DST_174_F_HPY.png,600,400,hyperfair,0,a,1021.03,a,1,0
P3,3,128,54,DST_022_M_ANG.png,500,500,fair,0,a,914.91,a,0,1
P3,3,129,131,DST_088_M_HPY.png,500,500,fair,0,a,991.91,a,1,1
P3,3,130,141,DST_079_M_HPY.png,800,200,hyperfair,0,a,1014.63,a,1,1
P3,3,131,92,DST_133_F_HPY.png,500,500,fair,0,a,812.29,a,1,0
P3,3,132,8,DST_149_F_ANG.png,300,700,unfair,0,a,1770.06,a,0,0
P3,3,133,109,DST_026_M_HPY.png,100,900,unfair,0,a,1249.72,a,1,1
P3,3,134,56,DST_120_M_ANG.png,500,500,fair,0,a,848.84,a,0,1
P3,3,135,7,DST_009_F_ANG.png,300,700,unfair,0,j,1932.78,a,0,0
P3,3,136,43,DST_047_M_ANG.png,300,700,unfair,0,j,1602.74,a,0,1
P3,3,137,60,DST_118_M_ANG.png,500,500,fair,0,a,992.77,a,0,1
P3,3,138,24,DST_147_F_ANG.png,500,500,fair,0,a,668.36,a,0,0
P3,3,139,40,DST_119_M_ANG.png,200,800,unfair,0,j,813.9,a,0,1
P3,3,140,19,DST_025_F_ANG.png,500,500,fair,0,a,651.56,a,0,0
P3,3,141,99,DST_186_F_HPY.png,600,400,hyperfair,0,a,749.57,a,1,0
